Data from dråber_Absorbance_15-18-48-270.txt Node
Date: Tue Apr 26 15:18:48 CEST 2022
User: au615756
Spectrometer: FLMS05815
Trigger mode: 0
Integration Time (sec): 5.000000E-1
Scans to average: 1
Electric dark correction enabled: true
Nonlinearity correction enabled: false
Boxcar width: 0
XAxis mode: Wavelengths
Number of Pixels in Spectrum: 2048
>>>>>Begin Spectral Data<<<<<
187.008	-0.23
187.477	-0.23
187.945	-0.23
188.413	-1.04
188.881	-0
189.349	-0.28
189.817	-0.01
190.285	-0.17
190.753	0.25
191.22	0.3
191.688	0.05
192.156	0.55
192.623	0.16
193.091	-1.62
193.559	0.44
194.026	-0.71
194.493	0.01
194.961	-0
195.428	0.96
195.895	-1.8
196.363	-0.56
196.83	1.66
197.297	-0.12
197.764	-0.25
198.231	0.1
198.698	0.62
199.165	0.09
199.632	0.12
200.099	0.23
200.566	0.11
201.032	0.52
201.499	0.14
201.966	0.11
202.432	0.49
202.899	0.05
203.365	0.31
203.832	0.21
204.298	0.31
204.764	0.19
205.231	0.44
205.697	0.29
206.163	0.1
206.629	0.13
207.095	0.01
207.561	0.3
208.027	0.2
208.493	0.37
208.959	0.24
209.425	0.29
209.891	-0
210.356	0.41
210.822	0.4
211.288	0.55
211.753	0.53
212.219	0.37
212.684	0.65
213.15	0.43
213.615	0.52
214.08	0.51
214.546	0.85
215.011	0.67
215.476	1.35
215.941	0.87
216.406	0.87
216.871	1.26
217.336	1.51
217.801	1.24
218.266	1.71
218.731	1.18
219.196	1.08
219.66	1.45
220.125	1.57
220.59	1.52
221.054	1.73
221.519	1.81
221.983	1.69
222.448	1.8
222.912	2.02
223.376	1.73
223.841	2.38
224.305	2
224.769	1.99
225.233	1.92
225.697	2.15
226.161	2.26
226.625	2.22
227.089	2.29
227.553	2.1
228.017	2.25
228.48	1.97
228.944	2.09
229.408	2.23
229.871	2.02
230.335	2.07
230.798	2.06
231.262	2.18
231.725	2.21
232.188	2.19
232.652	2.13
233.115	2.33
233.578	2.46
234.041	2.25
234.504	2.36
234.967	2.33
235.43	2.52
235.893	2.23
236.356	2.35
236.819	2.29
237.282	2.43
237.745	2.65
238.207	2.26
238.67	2.7
239.132	2.22
239.595	2.29
240.057	2.41
240.52	2.19
240.982	2.15
241.445	2.12
241.907	2.34
242.369	2.4
242.831	2.44
243.293	2.09
243.755	2.25
244.217	2.11
244.679	2.24
245.141	2.13
245.603	2.34
246.065	2.07
246.527	2.21
246.988	2.22
247.45	2.2
247.912	2.21
248.373	2.09
248.835	2.45
249.296	2.19
249.758	2.15
250.219	2.12
250.68	2.37
251.142	2.31
251.603	2.2
252.064	2.18
252.525	2.18
252.986	2.06
253.447	2.16
253.908	2.12
254.369	2.08
254.83	2.17
255.29	1.99
255.751	2.11
256.212	2.08
256.673	2.12
257.133	2.14
257.594	2.12
258.054	2.14
258.515	2
258.975	1.91
259.435	2.02
259.895	2.06
260.356	1.96
260.816	1.98
261.276	2.05
261.736	1.91
262.196	1.97
262.656	1.87
263.116	1.95
263.576	1.88
264.036	1.87
264.495	1.93
264.955	1.89
265.415	1.79
265.874	1.82
266.334	1.84
266.793	1.85
267.253	1.79
267.712	1.84
268.172	1.83
268.631	1.78
269.09	1.75
269.549	1.74
270.008	1.8
270.468	1.65
270.927	1.68
271.386	1.69
271.844	1.62
272.303	1.64
272.762	1.59
273.221	1.62
273.68	1.6
274.138	1.61
274.597	1.59
275.056	1.56
275.514	1.54
275.973	1.56
276.431	1.52
276.889	1.5
277.348	1.48
277.806	1.47
278.264	1.43
278.722	1.41
279.18	1.39
279.638	1.4
280.096	1.37
280.554	1.35
281.012	1.32
281.47	1.3
281.928	1.29
282.386	1.29
282.843	1.28
283.301	1.25
283.758	1.23
284.216	1.22
284.674	1.2
285.131	1.18
285.588	1.17
286.046	1.16
286.503	1.15
286.96	1.12
287.417	1.12
287.874	1.08
288.331	1.07
288.789	1.06
289.245	1.02
289.702	1
290.159	0.98
290.616	0.96
291.073	0.94
291.529	0.93
291.986	0.91
292.443	0.91
292.899	0.89
293.356	0.88
293.812	0.87
294.269	0.87
294.725	0.85
295.181	0.84
295.637	0.83
296.094	0.83
296.55	0.81
297.006	0.81
297.462	0.81
297.918	0.81
298.374	0.79
298.83	0.79
299.285	0.78
299.741	0.77
300.197	0.78
300.653	0.77
301.108	0.78
301.564	0.77
302.019	0.77
302.475	0.76
302.93	0.76
303.385	0.76
303.841	0.75
304.296	0.75
304.751	0.74
305.206	0.74
305.661	0.75
306.116	0.75
306.571	0.75
307.026	0.74
307.481	0.73
307.936	0.73
308.391	0.72
308.846	0.72
309.3	0.72
309.755	0.71
310.209	0.71
310.664	0.7
311.118	0.69
311.573	0.69
312.027	0.7
312.481	0.69
312.936	0.68
313.39	0.69
313.844	0.68
314.298	0.69
314.752	0.67
315.206	0.66
315.66	0.67
316.114	0.66
316.568	0.65
317.022	0.66
317.475	0.65
317.929	0.65
318.383	0.65
318.836	0.64
319.29	0.65
319.743	0.64
320.196	0.63
320.65	0.64
321.103	0.62
321.556	0.63
322.01	0.63
322.463	0.61
322.916	0.6
323.369	0.6
323.822	0.6
324.275	0.6
324.728	0.58
325.181	0.57
325.633	0.59
326.086	0.58
326.539	0.58
326.991	0.58
327.444	0.58
327.896	0.56
328.349	0.57
328.801	0.54
329.254	0.54
329.706	0.55
330.158	0.54
330.61	0.55
331.062	0.54
331.515	0.54
331.967	0.53
332.419	0.53
332.871	0.53
333.322	0.52
333.774	0.52
334.226	0.52
334.678	0.52
335.129	0.51
335.581	0.52
336.033	0.52
336.484	0.51
336.936	0.5
337.387	0.51
337.838	0.5
338.29	0.51
338.741	0.51
339.192	0.5
339.643	0.5
340.094	0.49
340.545	0.5
340.996	0.5
341.447	0.49
341.898	0.49
342.349	0.49
342.8	0.49
343.25	0.48
343.701	0.49
344.152	0.48
344.602	0.48
345.053	0.47
345.503	0.48
345.954	0.47
346.404	0.48
346.854	0.47
347.305	0.46
347.755	0.46
348.205	0.47
348.655	0.46
349.105	0.48
349.555	0.47
350.005	0.45
350.455	0.46
350.905	0.45
351.354	0.46
351.804	0.46
352.254	0.45
352.703	0.45
353.153	0.45
353.602	0.44
354.052	0.44
354.501	0.44
354.95	0.45
355.4	0.44
355.849	0.44
356.298	0.44
356.747	0.44
357.196	0.43
357.645	0.44
358.094	0.43
358.543	0.44
358.992	0.43
359.441	0.44
359.89	0.43
360.338	0.44
360.787	0.43
361.236	0.44
361.684	0.43
362.133	0.42
362.581	0.44
363.029	0.41
363.478	0.43
363.926	0.42
364.374	0.43
364.822	0.43
365.271	0.42
365.719	0.41
366.167	0.43
366.615	0.43
367.062	0.42
367.51	0.42
367.958	0.43
368.406	0.42
368.854	0.42
369.301	0.42
369.749	0.42
370.196	0.42
370.644	0.42
371.091	0.41
371.538	0.43
371.986	0.42
372.433	0.42
372.88	0.42
373.327	0.42
373.775	0.41
374.222	0.41
374.669	0.42
375.115	0.42
375.562	0.41
376.009	0.41
376.456	0.43
376.903	0.41
377.349	0.42
377.796	0.42
378.243	0.43
378.689	0.42
379.135	0.41
379.582	0.41
380.028	0.42
380.475	0.41
380.921	0.42
381.367	0.42
381.813	0.42
382.259	0.42
382.705	0.42
383.151	0.43
383.597	0.42
384.043	0.42
384.489	0.42
384.934	0.41
385.38	0.43
385.826	0.43
386.271	0.42
386.717	0.42
387.162	0.42
387.608	0.41
388.053	0.43
388.499	0.4
388.944	0.41
389.389	0.41
389.834	0.41
390.279	0.41
390.724	0.41
391.169	0.43
391.614	0.4
392.059	0.4
392.504	0.4
392.949	0.4
393.394	0.41
393.838	0.4
394.283	0.41
394.727	0.4
395.172	0.4
395.616	0.43
396.061	0.4
396.505	0.4
396.95	0.39
397.394	0.4
397.838	0.39
398.282	0.4
398.726	0.42
399.17	0.41
399.614	0.4
400.058	0.39
400.502	0.4
400.946	0.43
401.39	0.41
401.833	0.42
402.277	0.42
402.721	0.41
403.164	0.42
403.608	0.42
404.051	0.42
404.494	0.41
404.938	0.42
405.381	0.43
405.824	0.43
406.267	0.43
406.71	0.42
407.154	0.42
407.597	0.43
408.039	0.42
408.482	0.42
408.925	0.42
409.368	0.42
409.811	0.42
410.253	0.4
410.696	0.42
411.139	0.41
411.581	0.4
412.024	0.41
412.466	0.41
412.908	0.4
413.351	0.4
413.793	0.4
414.235	0.39
414.677	0.39
415.119	0.4
415.561	0.39
416.003	0.38
416.445	0.38
416.887	0.37
417.329	0.37
417.771	0.37
418.212	0.36
418.654	0.37
419.096	0.37
419.537	0.37
419.979	0.35
420.42	0.36
420.861	0.35
421.303	0.34
421.744	0.33
422.185	0.33
422.626	0.32
423.067	0.33
423.508	0.31
423.949	0.31
424.39	0.33
424.831	0.32
425.272	0.32
425.713	0.31
426.154	0.3
426.594	0.3
427.035	0.31
427.475	0.31
427.916	0.29
428.356	0.29
428.797	0.3
429.237	0.29
429.677	0.29
430.118	0.29
430.558	0.27
430.998	0.28
431.438	0.26
431.878	0.26
432.318	0.27
432.758	0.28
433.198	0.28
433.638	0.29
434.077	0.27
434.517	0.27
434.957	0.27
435.396	0.26
435.836	0.27
436.275	0.25
436.715	0.24
437.154	0.24
437.593	0.23
438.032	0.23
438.472	0.24
438.911	0.25
439.35	0.25
439.789	0.24
440.228	0.24
440.667	0.24
441.106	0.26
441.544	0.25
441.983	0.25
442.422	0.21
442.86	0.23
443.299	0.24
443.738	0.24
444.176	0.23
444.615	0.24
445.053	0.22
445.491	0.23
445.929	0.22
446.368	0.22
446.806	0.23
447.244	0.23
447.682	0.23
448.12	0.22
448.558	0.22
448.996	0.23
449.434	0.22
449.871	0.22
450.309	0.23
450.747	0.22
451.184	0.21
451.622	0.21
452.059	0.21
452.497	0.23
452.934	0.22
453.371	0.22
453.809	0.22
454.246	0.22
454.683	0.23
455.12	0.21
455.557	0.21
455.994	0.21
456.431	0.22
456.868	0.21
457.305	0.2
457.742	0.2
458.178	0.21
458.615	0.2
459.052	0.2
459.488	0.22
459.925	0.21
460.361	0.2
460.797	0.2
461.234	0.21
461.67	0.2
462.106	0.2
462.542	0.21
462.979	0.21
463.415	0.2
463.851	0.2
464.287	0.2
464.722	0.2
465.158	0.18
465.594	0.2
466.03	0.19
466.465	0.18
466.901	0.18
467.337	0.2
467.772	0.19
468.208	0.21
468.643	0.21
469.078	0.19
469.514	0.19
469.949	0.18
470.384	0.18
470.819	0.19
471.254	0.19
471.689	0.19
472.124	0.18
472.559	0.19
472.994	0.19
473.429	0.2
473.863	0.18
474.298	0.19
474.733	0.19
475.167	0.18
475.602	0.17
476.036	0.18
476.471	0.17
476.905	0.18
477.339	0.19
477.773	0.17
478.208	0.19
478.642	0.17
479.076	0.18
479.51	0.17
479.944	0.19
480.378	0.17
480.811	0.18
481.245	0.18
481.679	0.18
482.113	0.18
482.546	0.17
482.98	0.17
483.413	0.17
483.847	0.17
484.28	0.17
484.713	0.18
485.147	0.18
485.58	0.16
486.013	0.17
486.446	0.16
486.879	0.16
487.312	0.16
487.745	0.15
488.178	0.18
488.611	0.18
489.044	0.16
489.477	0.18
489.909	0.18
490.342	0.17
490.774	0.16
491.207	0.16
491.639	0.17
492.072	0.16
492.504	0.16
492.936	0.16
493.369	0.17
493.801	0.17
494.233	0.16
494.665	0.16
495.097	0.16
495.529	0.16
495.961	0.16
496.393	0.17
496.824	0.15
497.256	0.14
497.688	0.15
498.119	0.15
498.551	0.17
498.982	0.18
499.414	0.17
499.845	0.16
500.277	0.15
500.708	0.15
501.139	0.17
501.57	0.16
502.001	0.16
502.432	0.14
502.863	0.14
503.294	0.15
503.725	0.15
504.156	0.15
504.587	0.16
505.017	0.16
505.448	0.15
505.879	0.15
506.309	0.15
506.74	0.15
507.17	0.15
507.601	0.17
508.031	0.15
508.461	0.15
508.891	0.14
509.321	0.15
509.752	0.13
510.182	0.15
510.612	0.16
511.042	0.15
511.471	0.15
511.901	0.15
512.331	0.15
512.761	0.16
513.19	0.15
513.62	0.15
514.049	0.15
514.479	0.15
514.908	0.15
515.338	0.14
515.767	0.15
516.196	0.14
516.625	0.16
517.055	0.16
517.484	0.14
517.913	0.13
518.342	0.15
518.771	0.15
519.199	0.15
519.628	0.15
520.057	0.14
520.486	0.16
520.914	0.14
521.343	0.15
521.771	0.16
522.2	0.16
522.628	0.15
523.057	0.15
523.485	0.14
523.913	0.16
524.341	0.16
524.77	0.16
525.198	0.15
525.626	0.15
526.054	0.13
526.481	0.15
526.909	0.16
527.337	0.16
527.765	0.15
528.192	0.15
528.62	0.16
529.048	0.16
529.475	0.16
529.903	0.16
530.33	0.16
530.757	0.15
531.185	0.18
531.612	0.17
532.039	0.15
532.466	0.16
532.893	0.15
533.32	0.16
533.747	0.15
534.174	0.15
534.601	0.15
535.028	0.15
535.454	0.16
535.881	0.16
536.308	0.16
536.734	0.16
537.161	0.17
537.587	0.17
538.013	0.17
538.44	0.18
538.866	0.16
539.292	0.15
539.718	0.14
540.144	0.17
540.57	0.17
540.996	0.17
541.422	0.17
541.848	0.17
542.274	0.17
542.7	0.15
543.125	0.15
543.551	0.14
543.977	0.16
544.402	0.16
544.828	0.15
545.253	0.16
545.678	0.15
546.104	0.14
546.529	0.16
546.954	0.16
547.379	0.16
547.804	0.16
548.229	0.16
548.654	0.16
549.079	0.16
549.504	0.18
549.929	0.18
550.353	0.19
550.778	0.2
551.203	0.18
551.627	0.2
552.052	0.18
552.476	0.18
552.901	0.19
553.325	0.19
553.749	0.19
554.173	0.19
554.598	0.22
555.022	0.21
555.446	0.2
555.87	0.21
556.294	0.21
556.718	0.2
557.141	0.18
557.565	0.21
557.989	0.24
558.412	0.22
558.836	0.24
559.26	0.22
559.683	0.23
560.106	0.24
560.53	0.22
560.953	0.24
561.376	0.23
561.8	0.21
562.223	0.23
562.646	0.24
563.069	0.23
563.492	0.26
563.915	0.24
564.337	0.26
564.76	0.26
565.183	0.26
565.606	0.25
566.028	0.28
566.451	0.27
566.873	0.26
567.296	0.27
567.718	0.28
568.14	0.28
568.563	0.27
568.985	0.27
569.407	0.26
569.829	0.28
570.251	0.28
570.673	0.28
571.095	0.27
571.517	0.29
571.939	0.29
572.361	0.31
572.782	0.29
573.204	0.29
573.625	0.31
574.047	0.33
574.468	0.35
574.89	0.32
575.311	0.3
575.732	0.33
576.154	0.33
576.575	0.33
576.996	0.35
577.417	0.36
577.838	0.37
578.259	0.34
578.68	0.35
579.101	0.34
579.522	0.32
579.942	0.35
580.363	0.4
580.784	0.41
581.204	0.4
581.625	0.36
582.045	0.39
582.465	0.36
582.886	0.35
583.306	0.35
583.726	0.39
584.146	0.44
584.566	0.42
584.986	0.43
585.406	0.43
585.826	0.39
586.246	0.36
586.666	0.38
587.086	0.38
587.505	0.42
587.925	0.44
588.345	0.44
588.764	0.42
589.184	0.4
589.603	0.42
590.022	0.45
590.442	0.45
590.861	0.46
591.28	0.44
591.699	0.43
592.118	0.44
592.537	0.44
592.956	0.45
593.375	0.42
593.794	0.42
594.212	0.43
594.631	0.42
595.05	0.44
595.468	0.48
595.887	0.51
596.305	0.5
596.724	0.46
597.142	0.46
597.56	0.47
597.979	0.51
598.397	0.5
598.815	0.47
599.233	0.48
599.651	0.47
600.069	0.5
600.487	0.5
600.905	0.48
601.322	0.53
601.74	0.54
602.158	0.53
602.575	0.58
602.993	0.58
603.41	0.57
603.828	0.59
604.245	0.56
604.663	0.56
605.08	0.57
605.497	0.54
605.914	0.59
606.331	0.6
606.748	0.61
607.165	0.59
607.582	0.6
607.999	0.61
608.416	0.63
608.832	0.65
609.249	0.66
609.666	0.67
610.082	0.7
610.499	0.68
610.915	0.7
611.332	0.69
611.748	0.68
612.164	0.71
612.58	0.72
612.997	0.75
613.413	0.75
613.829	0.75
614.245	0.74
614.661	0.77
615.076	0.76
615.492	0.77
615.908	0.81
616.324	0.79
616.739	0.77
617.155	0.82
617.57	0.83
617.986	0.88
618.401	0.87
618.817	0.88
619.232	0.85
619.647	0.87
620.062	0.87
620.477	0.9
620.892	0.92
621.307	0.95
621.722	0.92
622.137	0.93
622.552	0.98
622.967	0.94
623.381	0.9
623.796	0.93
624.211	0.98
624.625	1.04
625.04	1
625.454	1.1
625.868	0.98
626.283	0.97
626.697	0.99
627.111	1.03
627.525	1.04
627.939	1.03
628.353	1.03
628.767	1.1
629.181	1.06
629.595	1.08
630.009	1.08
630.422	1.09
630.836	1.05
631.249	1.05
631.663	1.06
632.076	1.03
632.49	1.08
632.903	1.01
633.316	1.04
633.73	1.02
634.143	0.98
634.556	1.01
634.969	0.96
635.382	1.03
635.795	0.99
636.208	0.96
636.621	0.97
637.033	0.95
637.446	0.92
637.859	0.95
638.271	0.95
638.684	0.96
639.096	0.95
639.509	0.89
639.921	0.94
640.333	0.91
640.746	0.87
641.158	0.85
641.57	0.86
641.982	0.85
642.394	0.82
642.806	0.77
643.218	0.78
643.63	0.72
644.041	0.76
644.453	0.76
644.865	0.71
645.276	0.73
645.688	0.71
646.099	0.69
646.511	0.7
646.922	0.73
647.333	0.69
647.745	0.66
648.156	0.66
648.567	0.6
648.978	0.61
649.389	0.6
649.8	0.58
650.211	0.56
650.622	0.56
651.032	0.53
651.443	0.52
651.854	0.55
652.264	0.53
652.675	0.45
653.085	0.49
653.496	0.46
653.906	0.46
654.316	0.44
654.726	0.44
655.137	0.42
655.547	0.4
655.957	0.41
656.367	0.38
656.777	0.36
657.187	0.18
657.596	0.25
658.006	0.27
658.416	0.43
658.826	0.51
659.235	0.41
659.645	0.33
660.054	0.29
660.463	0.28
660.873	0.29
661.282	0.28
661.691	0.27
662.1	0.27
662.51	0.24
662.919	0.25
663.328	0.23
663.737	0.23
664.145	0.22
664.554	0.2
664.963	0.21
665.372	0.2
665.78	0.21
666.189	0.19
666.597	0.18
667.006	0.21
667.414	0.19
667.823	0.19
668.231	0.18
668.639	0.18
669.047	0.16
669.455	0.16
669.863	0.15
670.271	0.17
670.679	0.14
671.087	0.15
671.495	0.15
671.903	0.13
672.31	0.13
672.718	0.12
673.126	0.1
673.533	0.12
673.941	0.12
674.348	0.14
674.755	0.14
675.163	0.13
675.57	0.13
675.977	0.11
676.384	0.11
676.791	0.11
677.198	0.09
677.605	0.1
678.012	0.09
678.419	0.1
678.825	0.11
679.232	0.11
679.639	0.11
680.045	0.08
680.452	0.1
680.858	0.09
681.264	0.08
681.671	0.1
682.077	0.09
682.483	0.1
682.889	0.1
683.295	0.08
683.701	0.09
684.107	0.09
684.513	0.11
684.919	0.09
685.325	0.05
685.731	0.07
686.136	0.07
686.542	0.08
686.947	0.07
687.353	0.06
687.758	0.09
688.164	0.1
688.569	0.09
688.974	0.08
689.379	0.09
689.784	0.07
690.19	0.09
690.595	0.08
690.999	0.07
691.404	0.05
691.809	0.06
692.214	0.09
692.619	0.06
693.023	0.07
693.428	0.06
693.832	0.09
694.237	0.08
694.641	0.08
695.046	0.08
695.45	0.06
695.854	0.07
696.258	0.08
696.662	0.04
697.066	0.08
697.47	0.06
697.874	0.09
698.278	0.07
698.682	0.04
699.086	0.03
699.489	0.08
699.893	0.11
700.297	0.08
700.7	0.06
701.104	0.07
701.507	0.07
701.91	0.07
702.314	0.06
702.717	0.06
703.12	0.06
703.523	0.04
703.926	0.06
704.329	0.05
704.732	0.06
705.135	0.07
705.538	0.08
705.94	0.07
706.343	0.07
706.746	0.06
707.148	0.07
707.551	0.06
707.953	0.05
708.355	0.03
708.758	0.03
709.16	0.07
709.562	0.08
709.964	0.08
710.366	0.06
710.768	0.08
711.17	0.07
711.572	0.08
711.974	0.04
712.376	0.04
712.777	0.06
713.179	0.07
713.581	0.07
713.982	0.04
714.384	0.04
714.785	0.05
715.186	0.05
715.588	0.05
715.989	0.07
716.39	0.06
716.791	0.06
717.192	0.08
717.593	0.08
717.994	0.07
718.395	0.07
718.796	0.08
719.196	0.07
719.597	0.04
719.998	0.06
720.398	0.05
720.799	0.06
721.199	0.06
721.6	0.06
722	0.07
722.4	0.06
722.8	0.05
723.201	0.04
723.601	0.07
724.001	0.05
724.401	0.06
724.8	0.07
725.2	0.06
725.6	0.07
726	0.05
726.399	0.06
726.799	0.04
727.199	0.04
727.598	0.07
727.997	0.06
728.397	0.07
728.796	0.06
729.195	0.05
729.594	0.04
729.994	0.06
730.393	0.06
730.792	0.07
731.19	0.06
731.589	0.06
731.988	0.04
732.387	0.05
732.786	0.05
733.184	0.05
733.583	0.09
733.981	0.06
734.38	0.05
734.778	0.05
735.176	0.06
735.575	0.07
735.973	0.05
736.371	0.06
736.769	0.09
737.167	0.05
737.565	0.05
737.963	0.06
738.361	0.06
738.759	0.08
739.156	0.05
739.554	0.06
739.951	0.06
740.349	0.04
740.746	0.05
741.144	0.06
741.541	0.09
741.938	0.1
742.336	0.07
742.733	0.07
743.13	0.06
743.527	0.07
743.924	0.05
744.321	0.04
744.718	0.06
745.115	0.09
745.511	0.06
745.908	0.07
746.305	0.07
746.701	0.06
747.098	0.04
747.494	0.05
747.89	0.06
748.287	0.05
748.683	0.07
749.079	0.07
749.475	0.05
749.871	0.07
750.267	0.06
750.663	0.05
751.059	0.04
751.455	-0.11
751.851	-0.11
752.246	0
752.642	0.17
753.038	0.2
753.433	0.09
753.829	0.12
754.224	0.09
754.619	0.05
755.015	0.05
755.41	0.05
755.805	0.05
756.2	0.06
756.595	0.06
756.99	0.03
757.385	0.05
757.78	0.06
758.175	0.05
758.569	0.02
758.964	0.05
759.359	0.06
759.753	0.06
760.148	0.1
760.542	0.08
760.936	0.06
761.331	0.04
761.725	0.06
762.119	0.06
762.513	0.04
762.907	0.05
763.301	0.08
763.695	0.07
764.089	0.05
764.483	0.03
764.877	-0.01
765.27	0.05
765.664	0.08
766.057	0.07
766.451	0.03
766.844	0.06
767.238	0.08
767.631	0.09
768.024	0.07
768.417	0.07
768.811	0.06
769.204	0.06
769.597	0.03
769.99	0.02
770.383	0.03
770.775	0.08
771.168	0.09
771.561	0.07
771.953	0.05
772.346	0.06
772.739	0.04
773.131	0.06
773.523	0.04
773.916	0.05
774.308	0.04
774.7	0.06
775.092	0.08
775.484	0.05
775.876	0.05
776.268	0.04
776.66	0.04
777.052	0.05
777.444	0.06
777.836	0.06
778.227	0.04
778.619	0.04
779.01	0.05
779.402	0.06
779.793	0.06
780.185	0.04
780.576	0.05
780.967	0.05
781.358	0.06
781.749	0.05
782.14	0.05
782.531	0.02
782.922	0.03
783.313	0.05
783.704	0.07
784.095	0.06
784.485	0.06
784.876	0.04
785.266	0.06
785.657	0.05
786.047	0.07
786.438	0.03
786.828	0.05
787.218	0.04
787.608	0.04
787.998	0.04
788.389	0.06
788.779	0.07
789.168	0.06
789.558	0.03
789.948	0.02
790.338	0.04
790.728	0.05
791.117	0.07
791.507	0.05
791.896	0.03
792.286	0.04
792.675	0.06
793.064	0.03
793.454	0.04
793.843	0.06
794.232	0.08
794.621	0.03
795.01	0.04
795.399	0.02
795.788	0.02
796.176	0.03
796.565	0.08
796.954	0.1
797.343	0.07
797.731	0.07
798.12	0.05
798.508	0.05
798.896	0.03
799.285	0.03
799.673	0.06
800.061	0.06
800.449	0.07
800.837	0.04
801.225	0.05
801.613	0.04
802.001	0.04
802.389	0.04
802.777	0.04
803.164	0.06
803.552	0.07
803.94	0.05
804.327	0.04
804.715	0.04
805.102	0.02
805.489	0.06
805.877	0.06
806.264	0.05
806.651	0.04
807.038	0.01
807.425	0.02
807.812	0.03
808.199	0.05
808.586	0.05
808.972	0.05
809.359	0.04
809.746	0.02
810.132	0.05
810.519	0.07
810.905	0.07
811.292	0.04
811.678	0.03
812.064	0.03
812.45	0.03
812.836	0.02
813.223	0.03
813.609	0.09
813.995	0.07
814.38	0.02
814.766	0.04
815.152	0
815.538	0.04
815.923	0.06
816.309	0.06
816.694	0.02
817.08	0.05
817.465	0.05
817.851	0.05
818.236	0.02
818.621	0.03
819.006	0.03
819.391	0.05
819.776	0.05
820.161	0.04
820.546	0.06
820.931	0.05
821.316	0.04
821.7	0.03
822.085	0.02
822.47	0.04
822.854	0.06
823.239	0.08
823.623	0.03
824.007	0.04
824.391	0.03
824.776	0.04
825.16	0.04
825.544	0.06
825.928	0.05
826.312	0.03
826.696	0.01
827.08	0.04
827.463	0.01
827.847	0.02
828.231	0.03
828.614	0.04
828.998	0.05
829.381	0.03
829.765	0.09
830.148	0.06
830.531	0.04
830.914	0.03
831.297	0.07
831.681	0.04
832.064	0.04
832.446	0.04
832.829	0.05
833.212	0.04
833.595	0.05
833.978	0.03
834.36	0.03
834.743	0.05
835.125	0.05
835.508	0.04
835.89	0.03
836.272	0.05
836.655	0.06
837.037	0.04
837.419	0.05
837.801	0.05
838.183	0.03
838.565	0.03
838.947	0.03
839.329	0.03
839.71	0.04
840.092	0.03
840.474	0.05
840.855	0.04
841.237	0.06
841.618	0.01
842	0.02
842.381	0.05
842.762	0.07
843.143	0.03
843.525	0.01
843.906	0.04
844.287	0.04
844.667	0.06
845.048	0.05
845.429	0.03
845.81	0.04
846.191	0.05
846.571	0.01
846.952	0.05
847.332	0.04
847.713	0.02
848.093	0.02
848.473	0.02
848.854	0.02
849.234	0.04
849.614	0.04
849.994	0.04
850.374	0.04
850.754	0.04
851.134	0.03
851.513	0.03
851.893	0.06
852.273	0.02
852.652	0.01
853.032	0.02
853.411	0.03
853.791	0.04
854.17	0.03
854.55	0.02
854.929	0.05
855.308	0.05
855.687	0.04
856.066	0.03
856.445	0.03
856.824	0.04
857.203	0.02
857.582	0.05
857.96	0.04
858.339	0.04
858.718	0.06
859.096	0.04
859.475	0.03
859.853	0.02
860.231	0.04
860.61	0.06
860.988	0.03
861.366	0.04
861.744	0.05
862.122	0.05
862.5	0.02
862.878	0.04
863.256	0.03
863.633	0.04
864.011	0.03
864.389	0.04
864.766	0.03
865.144	0.01
865.521	0.03
865.899	0.03
866.276	0.01
866.653	0.04
867.031	0.05
867.408	0.04
867.785	0.03
868.162	0.03
868.539	0.05
868.916	0.04
869.292	0.02
869.669	0.03
870.046	0.04
870.422	0.02
870.799	0.05
871.175	0.02
871.552	0.01
871.928	0.03
872.305	0.03
872.681	0.03
873.057	0.04
873.433	0.03
873.809	0.02
874.185	0.01
874.561	0.04
874.937	0.03
875.313	0.04
875.688	0.03
876.064	0.04
876.44	0.04
876.815	0.05
877.191	0.05
877.566	0.03
877.942	0.03
878.317	0.03
878.692	0
879.067	0.05
879.442	0.03
879.817	0.04
880.192	0.03
880.567	0.06
880.942	0.04
881.317	0.02
881.691	0.05
882.066	0.03
882.441	0.05
882.815	0.01
883.19	0.03
883.564	0.02
883.938	0.05
884.313	0.05
884.687	0.02
885.061	0.04
885.435	0.02
885.809	0.04
886.183	0.05
886.557	0.06
886.931	0.04
887.305	0.03
887.678	0.04
888.052	0.03
888.425	0.01
888.799	0.04
889.172	0.04
889.546	0.03
889.919	0.03
890.292	0.04
890.665	0.03
891.039	0.03
891.412	0.05
891.785	0.05
892.157	0.05
892.53	0.04
892.903	0.03
893.276	0.07
893.648	0.03
894.021	0.04
894.394	0.04
894.766	0.04
895.139	0.06
895.511	0.03
895.883	0.04
896.255	0.06
896.627	0.04
897	0.05
897.372	0.04
897.744	0.05
898.115	0.07
898.487	0.04
898.859	0.05
899.231	0.06
899.602	0.06
899.974	0.05
900.345	0.05
900.717	0.07
901.088	0.06
901.46	0.06
901.831	0.05
902.202	0.06
902.573	0.06
902.944	0.04
903.315	0.04
903.686	0.05
904.057	0.05
904.428	0.05
904.799	0.07
905.169	0.05
905.54	0.04
905.91	0.07
906.281	0.07
906.651	0.06
907.022	0.06
907.392	0.08
907.762	0.08
908.132	0.06
908.502	0.06
908.872	0.06
909.242	0.03
909.612	0.07
909.982	0.07
910.352	0.09
910.722	0.04
911.091	0.05
911.461	0.04
911.83	0.08
912.2	0.07
912.569	0.06
912.938	0.08
913.308	0.03
913.677	0.04
914.046	0.04
914.415	0.06
914.784	0.04
915.153	0.07
915.522	0.09
915.891	0.09
916.259	0.02
916.628	0.04
916.997	0.03
917.365	0.05
917.734	0.07
918.102	0.03
918.47	0.07
918.839	0.07
919.207	0.05
919.575	0.05
919.943	0.06
920.311	0.03
920.679	0.08
921.047	0.05
921.415	0.09
921.783	0.07
922.15	0.03
922.518	0.07
922.886	0.05
923.253	0.04
923.62	0.09
923.988	0.06
924.355	0.1
924.722	0.08
925.09	0.09
925.457	0.03
925.824	0.03
926.191	0.12
926.558	0.05
926.925	0.04
927.291	0.06
927.658	0.11
928.025	0.07
928.391	0.07
928.758	0
929.124	0.05
929.491	0.03
929.857	0.11
930.223	0.07
930.59	0.09
930.956	0.09
931.322	0.07
931.688	0.09
932.054	0.04
932.42	0.12
932.785	0.18
933.151	0.09
933.517	0.09
933.882	0.1
934.248	0.18
934.613	0.14
934.979	0.08
935.344	0.11
935.71	0.09
936.075	0.08
936.44	0.05
936.805	0.06
937.17	0.06
937.535	0.07
937.9	0.14
938.265	0.11
938.63	0.08
938.994	0.07
939.359	0.09
939.724	0.19
940.088	0.06
940.453	0.15
940.817	0.09
941.181	0.13
941.545	0.11
941.91	0.14
942.274	0.1
942.638	0.05
943.002	0.07
943.366	0.15
943.73	0.12
944.093	0.02
944.457	0.07
944.821	0.2
945.184	0.11
945.548	0.01
945.911	0.15
946.275	0.07
946.638	0.03
947.001	0.13
947.365	0.02
947.728	0.04
948.091	0.09
948.454	0.12
948.817	0.14
949.18	0.26
949.543	0.19
949.905	0.22
950.268	0.05
950.631	0.04
950.993	0.11
951.356	0.15
951.718	-0.03
952.08	0.06
952.443	0.27
952.805	0.21
953.167	0.21
953.529	0.13
953.891	0.17
954.253	-0.05
954.615	0.09
954.977	0.17
955.339	0.27
955.7	0.24
956.062	0.11
956.424	0.39
956.785	0.17
957.147	0.14
957.508	-0.02
957.869	0.23
958.231	0.08
958.592	0.24
958.953	0.11
959.314	0.06
959.675	0.14
960.036	0.06
960.397	0.07
960.757	0.01
961.118	0.14
961.479	0.02
961.839	-0.15
962.2	-0.12
962.56	-0.02
962.921	-0.32
963.281	0.01
963.641	0.05
964.002	0.2
964.362	0.14
964.722	0.23
965.082	0.09
965.442	-0.11
965.801	-0.04
966.161	0.05
966.521	-0
966.881	0.27
967.24	0.23
967.6	-0.13
967.959	0
968.319	-0.75
968.678	0.12
969.037	0.06
969.397	0.31
969.756	-0.01
970.115	0.29
970.474	0.19
970.833	0.4
971.192	0.02
971.55	0.12
971.909	0.43
972.268	0.01
972.626	0.24
972.985	-0.37
973.343	0.38
973.702	0.12
974.06	-0.12
974.418	-0.05
974.777	-0.12
975.135	0.8
975.493	-0.03
975.851	0.05
976.209	0.29
976.567	0.01
976.925	-0.1
977.282	-0
977.64	0.11
977.998	-0.21
978.355	0.17
978.713	-0.53
979.07	0.42
979.428	-0.11
979.785	0.08
980.142	-0.03
980.499	0.12
980.856	-0.33
981.213	-0.41
981.57	-0.71
981.927	0.37
982.284	-0
982.641	0.66
982.997	-0
983.354	0.19
983.711	0.39
984.067	-0.02
984.424	0.16
984.78	-0
985.136	-0
985.493	0.02
985.849	-0.4
986.205	0.05
986.561	0.11
986.917	-0.04
987.273	-0
987.629	0.23
987.984	-0.25
988.34	0.05
988.696	-0
989.051	0.02
989.407	0.06
989.762	-0
990.118	0.3
990.473	0.08
990.828	0.06
991.183	-0
991.538	-0
991.893	-0
992.248	0.29
992.603	-0
992.958	0.08
993.313	-0
993.668	-0.43
994.022	0.24
994.377	-0.26
994.731	0.93
995.086	0.06
995.44	-0
995.794	0.24
996.149	0.08
996.503	0.04
996.857	0.01
997.211	-0.35
997.565	0.37
997.919	-0.05
998.273	0.05
998.627	-0
998.98	-0.32
999.334	0.25
999.687	-0.22
1000.041	-0
1000.394	-0.4
1000.748	-0.06
1001.101	0.74
1001.454	-0
1001.808	-0.13
1002.161	-0.6
1002.514	0.08
1002.867	-0
1003.22	-0
1003.572	-0.09
1003.925	-0.55
1004.278	-0
1004.631	-0
1004.983	-0
1005.336	0.17
1005.688	0.56
1006.04	-0.69
1006.393	-0.51
1006.745	0.33
1007.097	0.26
1007.449	-0.34
1007.801	-0
1008.153	-0.27
1008.505	-0
1008.857	-0
1009.209	0.63
1009.561	0.12
1009.912	-0.01
1010.264	0.21
1010.615	-0.06
1010.967	0.04
1011.318	0.51
1011.669	-0.04
1012.021	0.43
1012.372	-0
1012.723	-0
1013.074	-0.24
1013.425	0.32
1013.776	0.24
1014.127	-0
1014.477	0.16
1014.828	0.36
1015.179	0.21
1015.529	-0.81
1015.88	1.42
1016.23	-0
1016.581	-0.91
1016.931	-0
1017.281	0.7
1017.631	-0.2
1017.982	-0.96
1018.332	-0
1018.682	-0.1
1019.031	-0.14
1019.381	-1.14
1019.731	-0.59
1020.081	-0.71
1020.43	0.23
1020.78	0.1
1021.129	-0.17
1021.479	-0
1021.828	-0.01
1022.178	-0.12
1022.527	1.41
1022.876	0.35
1023.225	-0.56
1023.574	-0.16
1023.923	0.58
1024.272	0.25
1024.621	-0.07
1024.97	-0.09
1025.318	0.27
1025.667	-0.05
1026.015	-0.13
1026.364	-0
1026.712	-0
1027.061	-0.58
1027.409	-0.35
1027.757	-0.38
1028.105	-0.38
1028.453	-0.38
