Data from dråber_Absorbance_15-16-29-273.txt Node
Date: Tue Apr 26 15:16:29 CEST 2022
User: au615756
Spectrometer: FLMS05815
Trigger mode: 0
Integration Time (sec): 5.000000E-1
Scans to average: 1
Electric dark correction enabled: true
Nonlinearity correction enabled: false
Boxcar width: 0
XAxis mode: Wavelengths
Number of Pixels in Spectrum: 2048
>>>>>Begin Spectral Data<<<<<
187.008	0.36
187.477	0.36
187.945	0.36
188.413	-0
188.881	0.03
189.349	-0.08
189.817	-0.34
190.285	0.19
190.753	0.21
191.22	-0
191.688	0.27
192.156	0.52
192.623	0.15
193.091	-0
193.559	-0.01
194.026	-0.77
194.493	0.14
194.961	-0.39
195.428	0.3
195.895	0.3
196.363	-0.55
196.83	-0.15
197.297	0.09
197.764	-0.29
198.231	0.12
198.698	-0.04
199.165	-0.06
199.632	-0.04
200.099	0.01
200.566	0.08
201.032	0.21
201.499	0.19
201.966	0.06
202.432	0.24
202.899	-0.08
203.365	0.13
203.832	0.22
204.298	0.21
204.764	0.23
205.231	0.21
205.697	0.21
206.163	0.13
206.629	0.19
207.095	0.15
207.561	0.19
208.027	0.19
208.493	0.65
208.959	0.15
209.425	0.26
209.891	0.3
210.356	0.23
210.822	0.29
211.288	0.42
211.753	0.44
212.219	0.25
212.684	0.77
213.15	0.36
213.615	0.89
214.08	0.4
214.546	0.59
215.011	0.61
215.476	0.82
215.941	0.75
216.406	0.65
216.871	0.84
217.336	1.07
217.801	1.1
218.266	0.99
218.731	1.18
219.196	1.15
219.66	1.24
220.125	1.38
220.59	1.37
221.054	1.68
221.519	1.46
221.983	1.42
222.448	1.69
222.912	1.5
223.376	1.74
223.841	1.87
224.305	1.82
224.769	1.91
225.233	1.75
225.697	1.98
226.161	1.76
226.625	1.81
227.089	1.9
227.553	2.01
228.017	1.99
228.48	1.81
228.944	1.84
229.408	2.05
229.871	1.89
230.335	1.82
230.798	1.95
231.262	2
231.725	1.93
232.188	2.04
232.652	1.98
233.115	2.07
233.578	2.18
234.041	1.95
234.504	1.88
234.967	1.98
235.43	1.96
235.893	2.08
236.356	1.92
236.819	2.01
237.282	2.01
237.745	1.99
238.207	1.91
238.67	1.92
239.132	1.99
239.595	1.99
240.057	2.04
240.52	1.84
240.982	1.82
241.445	1.81
241.907	1.88
242.369	1.87
242.831	1.81
243.293	1.77
243.755	1.77
244.217	1.75
244.679	1.68
245.141	1.65
245.603	1.62
246.065	1.61
246.527	1.56
246.988	1.58
247.45	1.52
247.912	1.47
248.373	1.44
248.835	1.42
249.296	1.44
249.758	1.39
250.219	1.33
250.68	1.33
251.142	1.34
251.603	1.28
252.064	1.26
252.525	1.26
252.986	1.22
253.447	1.19
253.908	1.17
254.369	1.15
254.83	1.12
255.29	1.12
255.751	1.09
256.212	1.09
256.673	1.06
257.133	1.07
257.594	1.04
258.054	1.01
258.515	1.01
258.975	0.99
259.435	0.98
259.895	0.98
260.356	0.96
260.816	0.95
261.276	0.93
261.736	0.93
262.196	0.92
262.656	0.91
263.116	0.92
263.576	0.88
264.036	0.88
264.495	0.89
264.955	0.89
265.415	0.87
265.874	0.85
266.334	0.85
266.793	0.85
267.253	0.85
267.712	0.82
268.172	0.84
268.631	0.83
269.09	0.82
269.549	0.81
270.008	0.82
270.468	0.8
270.927	0.8
271.386	0.81
271.844	0.78
272.303	0.79
272.762	0.78
273.221	0.78
273.68	0.77
274.138	0.77
274.597	0.76
275.056	0.77
275.514	0.76
275.973	0.75
276.431	0.73
276.889	0.74
277.348	0.73
277.806	0.72
278.264	0.7
278.722	0.7
279.18	0.68
279.638	0.68
280.096	0.67
280.554	0.66
281.012	0.64
281.47	0.64
281.928	0.63
282.386	0.62
282.843	0.63
283.301	0.61
283.758	0.6
284.216	0.59
284.674	0.57
285.131	0.57
285.588	0.55
286.046	0.53
286.503	0.53
286.96	0.52
287.417	0.5
287.874	0.48
288.331	0.46
288.789	0.44
289.245	0.43
289.702	0.42
290.159	0.41
290.616	0.39
291.073	0.36
291.529	0.35
291.986	0.34
292.443	0.33
292.899	0.32
293.356	0.31
293.812	0.31
294.269	0.29
294.725	0.29
295.181	0.28
295.637	0.28
296.094	0.27
296.55	0.26
297.006	0.26
297.462	0.26
297.918	0.26
298.374	0.24
298.83	0.24
299.285	0.24
299.741	0.24
300.197	0.23
300.653	0.24
301.108	0.23
301.564	0.23
302.019	0.23
302.475	0.23
302.93	0.23
303.385	0.22
303.841	0.23
304.296	0.21
304.751	0.22
305.206	0.22
305.661	0.22
306.116	0.21
306.571	0.22
307.026	0.22
307.481	0.21
307.936	0.21
308.391	0.21
308.846	0.2
309.3	0.21
309.755	0.2
310.209	0.2
310.664	0.2
311.118	0.2
311.573	0.2
312.027	0.19
312.481	0.19
312.936	0.19
313.39	0.2
313.844	0.19
314.298	0.18
314.752	0.19
315.206	0.18
315.66	0.19
316.114	0.18
316.568	0.18
317.022	0.19
317.475	0.17
317.929	0.18
318.383	0.17
318.836	0.18
319.29	0.17
319.743	0.17
320.196	0.17
320.65	0.17
321.103	0.16
321.556	0.16
322.01	0.16
322.463	0.16
322.916	0.16
323.369	0.15
323.822	0.16
324.275	0.15
324.728	0.16
325.181	0.15
325.633	0.15
326.086	0.15
326.539	0.14
326.991	0.13
327.444	0.12
327.896	0.11
328.349	0.12
328.801	0.13
329.254	0.14
329.706	0.13
330.158	0.13
330.61	0.13
331.062	0.12
331.515	0.12
331.967	0.13
332.419	0.12
332.871	0.12
333.322	0.12
333.774	0.12
334.226	0.12
334.678	0.12
335.129	0.12
335.581	0.11
336.033	0.11
336.484	0.12
336.936	0.11
337.387	0.11
337.838	0.11
338.29	0.11
338.741	0.11
339.192	0.1
339.643	0.1
340.094	0.11
340.545	0.11
340.996	0.1
341.447	0.11
341.898	0.1
342.349	0.1
342.8	0.1
343.25	0.1
343.701	0.1
344.152	0.1
344.602	0.1
345.053	0.1
345.503	0.1
345.954	0.09
346.404	0.1
346.854	0.1
347.305	0.09
347.755	0.09
348.205	0.1
348.655	0.08
349.105	0.1
349.555	0.09
350.005	0.09
350.455	0.1
350.905	0.08
351.354	0.09
351.804	0.09
352.254	0.09
352.703	0.09
353.153	0.08
353.602	0.08
354.052	0.09
354.501	0.09
354.95	0.09
355.4	0.09
355.849	0.08
356.298	0.08
356.747	0.08
357.196	0.08
357.645	0.08
358.094	0.1
358.543	0.09
358.992	0.08
359.441	0.08
359.89	0.07
360.338	0.09
360.787	0.09
361.236	0.08
361.684	0.08
362.133	0.08
362.581	0.08
363.029	0.07
363.478	0.08
363.926	0.08
364.374	0.08
364.822	0.08
365.271	0.07
365.719	0.07
366.167	0.08
366.615	0.08
367.062	0.07
367.51	0.09
367.958	0.08
368.406	0.07
368.854	0.07
369.301	0.07
369.749	0.07
370.196	0.07
370.644	0.07
371.091	0.08
371.538	0.07
371.986	0.07
372.433	0.08
372.88	0.07
373.327	0.07
373.775	0.07
374.222	0.07
374.669	0.07
375.115	0.08
375.562	0.07
376.009	0.06
376.456	0.07
376.903	0.07
377.349	0.07
377.796	0.07
378.243	0.07
378.689	0.08
379.135	0.07
379.582	0.07
380.028	0.07
380.475	0.07
380.921	0.08
381.367	0.07
381.813	0.08
382.259	0.08
382.705	0.08
383.151	0.08
383.597	0.08
384.043	0.07
384.489	0.07
384.934	0.08
385.38	0.08
385.826	0.08
386.271	0.07
386.717	0.08
387.162	0.08
387.608	0.07
388.053	0.08
388.499	0.07
388.944	0.07
389.389	0.06
389.834	0.07
390.279	0.07
390.724	0.07
391.169	0.08
391.614	0.07
392.059	0.07
392.504	0.07
392.949	0.06
393.394	0.08
393.838	0.07
394.283	0.06
394.727	0.05
395.172	0.06
395.616	0.09
396.061	0.07
396.505	0.07
396.95	0.08
397.394	0.07
397.838	0.06
398.282	0.07
398.726	0.07
399.17	0.07
399.614	0.07
400.058	0.06
400.502	0.08
400.946	0.09
401.39	0.08
401.833	0.07
402.277	0.07
402.721	0.07
403.164	0.08
403.608	0.08
404.051	0.07
404.494	0.06
404.938	0.08
405.381	0.08
405.824	0.08
406.267	0.08
406.71	0.08
407.154	0.08
407.597	0.08
408.039	0.08
408.482	0.09
408.925	0.08
409.368	0.08
409.811	0.08
410.253	0.08
410.696	0.08
411.139	0.07
411.581	0.07
412.024	0.07
412.466	0.07
412.908	0.07
413.351	0.07
413.793	0.06
414.235	0.07
414.677	0.07
415.119	0.06
415.561	0.07
416.003	0.07
416.445	0.05
416.887	0.06
417.329	0.06
417.771	0.06
418.212	0.05
418.654	0.05
419.096	0.06
419.537	0.05
419.979	0.05
420.42	0.05
420.861	0.04
421.303	0.04
421.744	0.04
422.185	0.04
422.626	0.03
423.067	0.03
423.508	0.03
423.949	0.03
424.39	0.04
424.831	0.04
425.272	0.04
425.713	0.03
426.154	0.02
426.594	0.03
427.035	0.04
427.475	0.04
427.916	0.03
428.356	0.03
428.797	0.02
429.237	0.02
429.677	0.02
430.118	0.02
430.558	0.02
430.998	0.02
431.438	0
431.878	0.01
432.318	0.02
432.758	0.01
433.198	0.02
433.638	0.02
434.077	0.02
434.517	0.02
434.957	0.01
435.396	0.01
435.836	0.01
436.275	0
436.715	0
437.154	-0.01
437.593	-0.01
438.032	-0.01
438.472	-0
438.911	0
439.35	0
439.789	0
440.228	-0
440.667	-0
441.106	0.01
441.544	0.01
441.983	0
442.422	-0.01
442.86	-0.01
443.299	0.01
443.738	0.01
444.176	0
444.615	-0
445.053	-0.02
445.491	-0
445.929	0
446.368	-0.02
446.806	0
447.244	-0.01
447.682	-0.01
448.12	-0.01
448.558	-0
448.996	0
449.434	-0.01
449.871	-0.01
450.309	0
450.747	-0
451.184	-0.01
451.622	-0.01
452.059	-0
452.497	0
452.934	-0
453.371	-0.01
453.809	0
454.246	0
454.683	-0
455.12	0
455.557	-0.01
455.994	-0.01
456.431	0
456.868	-0.01
457.305	-0.02
457.742	-0.01
458.178	-0.01
458.615	-0.01
459.052	-0.02
459.488	-0
459.925	-0.01
460.361	-0.01
460.797	-0.01
461.234	-0.01
461.67	-0.02
462.106	-0.01
462.542	0
462.979	-0.02
463.415	0
463.851	-0.01
464.287	-0.02
464.722	-0.01
465.158	-0.03
465.594	-0.02
466.03	-0.02
466.465	-0.02
466.901	-0.03
467.337	-0.02
467.772	-0.03
468.208	0.01
468.643	0
469.078	-0.02
469.514	-0.02
469.949	-0.02
470.384	-0.02
470.819	-0.01
471.254	-0.01
471.689	-0.01
472.124	-0.02
472.559	-0.02
472.994	-0.03
473.429	-0.01
473.863	-0.01
474.298	-0.02
474.733	-0.02
475.167	-0.03
475.602	-0.02
476.036	-0.02
476.471	-0.04
476.905	-0.02
477.339	-0.02
477.773	-0.03
478.208	-0.02
478.642	-0.02
479.076	-0.01
479.51	-0.03
479.944	-0.02
480.378	-0.02
480.811	-0.02
481.245	-0.02
481.679	-0.02
482.113	-0.02
482.546	-0.03
482.98	-0.02
483.413	-0.03
483.847	-0.02
484.28	-0.02
484.713	-0.02
485.147	-0.02
485.58	-0.03
486.013	-0.03
486.446	-0.04
486.879	-0.04
487.312	-0.03
487.745	-0.03
488.178	-0.01
488.611	-0.01
489.044	-0.03
489.477	-0.01
489.909	-0
490.342	-0.03
490.774	-0.03
491.207	-0.02
491.639	-0.02
492.072	-0.02
492.504	-0.03
492.936	-0.03
493.369	-0.03
493.801	-0.03
494.233	-0.03
494.665	-0.03
495.097	-0.03
495.529	-0.03
495.961	-0.03
496.393	-0.02
496.824	-0.03
497.256	-0.04
497.688	-0.04
498.119	-0.04
498.551	-0.02
498.982	-0.02
499.414	-0.01
499.845	-0.04
500.277	-0.03
500.708	-0.03
501.139	-0.03
501.57	-0.04
502.001	-0.02
502.432	-0.04
502.863	-0.03
503.294	-0.04
503.725	-0.03
504.156	-0.03
504.587	-0.03
505.017	-0.03
505.448	-0.03
505.879	-0.03
506.309	-0.03
506.74	-0.03
507.17	-0.04
507.601	-0.02
508.031	-0.03
508.461	-0.03
508.891	-0.03
509.321	-0.04
509.752	-0.05
510.182	-0.03
510.612	-0.03
511.042	-0.02
511.471	-0.04
511.901	-0.04
512.331	-0.03
512.761	-0.03
513.19	-0.03
513.62	-0.03
514.049	-0.03
514.479	-0.03
514.908	-0.04
515.338	-0.03
515.767	-0.03
516.196	-0.04
516.625	-0.03
517.055	-0.02
517.484	-0.03
517.913	-0.04
518.342	-0.04
518.771	-0.03
519.199	-0.02
519.628	-0.03
520.057	-0.04
520.486	-0.04
520.914	-0.04
521.343	-0.03
521.771	-0.03
522.2	-0.03
522.628	-0.03
523.057	-0.04
523.485	-0.05
523.913	-0.02
524.341	-0.03
524.77	-0.03
525.198	-0.03
525.626	-0.04
526.054	-0.04
526.481	-0.04
526.909	-0.02
527.337	-0.02
527.765	-0.04
528.192	-0.03
528.62	-0.03
529.048	-0.03
529.475	-0.03
529.903	-0.03
530.33	-0.03
530.757	-0.03
531.185	-0.02
531.612	-0.02
532.039	-0.04
532.466	-0.03
532.893	-0.03
533.32	-0.03
533.747	-0.02
534.174	-0.03
534.601	-0.03
535.028	-0.04
535.454	-0.03
535.881	-0.02
536.308	-0.03
536.734	-0.03
537.161	-0.03
537.587	-0.02
538.013	-0.02
538.44	-0.03
538.866	-0.03
539.292	-0.04
539.718	-0.04
540.144	-0.03
540.57	-0.02
540.996	-0.02
541.422	-0.03
541.848	-0.02
542.274	-0.02
542.7	-0.04
543.125	-0.03
543.551	-0.03
543.977	-0.02
544.402	-0.03
544.828	-0.04
545.253	-0.04
545.678	-0.04
546.104	-0.04
546.529	-0.03
546.954	-0.04
547.379	-0.03
547.804	-0.01
548.229	-0.03
548.654	-0.03
549.079	-0.03
549.504	-0.02
549.929	-0.02
550.353	-0
550.778	-0.01
551.203	-0.01
551.627	-0.01
552.052	-0.01
552.476	-0.01
552.901	-0
553.325	-0.02
553.749	-0.03
554.173	-0.01
554.598	-0.01
555.022	-0.01
555.446	-0.01
555.87	-0.01
556.294	-0
556.718	-0.01
557.141	-0.02
557.565	0
557.989	0.01
558.412	0.01
558.836	0.01
559.26	-0.01
559.683	0.01
560.106	0
560.53	0.01
560.953	0
561.376	-0.01
561.8	0
562.223	0
562.646	0.01
563.069	0.01
563.492	0.03
563.915	0.01
564.337	0.02
564.76	0.01
565.183	0
565.606	0.03
566.028	0.04
566.451	0.02
566.873	0.01
567.296	0.01
567.718	0.02
568.14	0.02
568.563	0.02
568.985	0.02
569.407	0
569.829	0.03
570.251	0.02
570.673	0.01
571.095	0.02
571.517	0.02
571.939	0.02
572.361	0.04
572.782	0.03
573.204	0.02
573.625	0.04
574.047	0.06
574.468	0.06
574.89	0.04
575.311	0.01
575.732	0.06
576.154	0.04
576.575	0.05
576.996	0.06
577.417	0.07
577.838	0.07
578.259	0.03
578.68	0.04
579.101	0.04
579.522	0.02
579.942	0.05
580.363	0.11
580.784	0.09
581.204	0.08
581.625	0.04
582.045	0.07
582.465	0.04
582.886	0.03
583.306	0.03
583.726	0.08
584.146	0.13
584.566	0.1
584.986	0.09
585.406	0.09
585.826	0.06
586.246	0.04
586.666	0.05
587.086	0.06
587.505	0.1
587.925	0.11
588.345	0.09
588.764	0.08
589.184	0.07
589.603	0.08
590.022	0.12
590.442	0.1
590.861	0.11
591.28	0.1
591.699	0.09
592.118	0.1
592.537	0.1
592.956	0.1
593.375	0.08
593.794	0.07
594.212	0.09
594.631	0.06
595.05	0.09
595.468	0.14
595.887	0.15
596.305	0.13
596.724	0.1
597.142	0.09
597.56	0.12
597.979	0.14
598.397	0.11
598.815	0.1
599.233	0.1
599.651	0.11
600.069	0.11
600.487	0.11
600.905	0.1
601.322	0.15
601.74	0.15
602.158	0.14
602.575	0.17
602.993	0.15
603.41	0.15
603.828	0.16
604.245	0.15
604.663	0.15
605.08	0.12
605.497	0.11
605.914	0.17
606.331	0.16
606.748	0.18
607.165	0.13
607.582	0.16
607.999	0.17
608.416	0.18
608.832	0.18
609.249	0.19
609.666	0.2
610.082	0.22
610.499	0.21
610.915	0.21
611.332	0.19
611.748	0.2
612.164	0.21
612.58	0.23
612.997	0.23
613.413	0.22
613.829	0.24
614.245	0.23
614.661	0.23
615.076	0.23
615.492	0.25
615.908	0.24
616.324	0.25
616.739	0.24
617.155	0.28
617.57	0.31
617.986	0.29
618.401	0.27
618.817	0.28
619.232	0.28
619.647	0.29
620.062	0.27
620.477	0.3
620.892	0.31
621.307	0.3
621.722	0.3
622.137	0.31
622.552	0.35
622.967	0.34
623.381	0.33
623.796	0.3
624.211	0.33
624.625	0.38
625.04	0.35
625.454	0.33
625.868	0.36
626.283	0.32
626.697	0.37
627.111	0.37
627.525	0.37
627.939	0.36
628.353	0.36
628.767	0.37
629.181	0.34
629.595	0.39
630.009	0.39
630.422	0.36
630.836	0.36
631.249	0.36
631.663	0.38
632.076	0.4
632.49	0.36
632.903	0.37
633.316	0.39
633.73	0.37
634.143	0.36
634.556	0.38
634.969	0.35
635.382	0.35
635.795	0.36
636.208	0.32
636.621	0.34
637.033	0.34
637.446	0.32
637.859	0.31
638.271	0.32
638.684	0.33
639.096	0.33
639.509	0.32
639.921	0.33
640.333	0.3
640.746	0.29
641.158	0.29
641.57	0.27
641.982	0.29
642.394	0.27
642.806	0.27
643.218	0.28
643.63	0.27
644.041	0.24
644.453	0.26
644.865	0.23
645.276	0.25
645.688	0.23
646.099	0.22
646.511	0.21
646.922	0.2
647.333	0.2
647.745	0.19
648.156	0.18
648.567	0.17
648.978	0.18
649.389	0.17
649.8	0.14
650.211	0.14
650.622	0.15
651.032	0.16
651.443	0.14
651.854	0.14
652.264	0.13
652.675	0.12
653.085	0.13
653.496	0.11
653.906	0.1
654.316	0.1
654.726	0.1
655.137	0.08
655.547	0.09
655.957	0.09
656.367	0.06
656.777	0.05
657.187	-0.09
657.596	-0.04
658.006	-0.01
658.416	0.14
658.826	0.22
659.235	0.07
659.645	0.04
660.054	0.02
660.463	0.04
660.873	0.06
661.282	0.03
661.691	0.04
662.1	0.04
662.51	0.01
662.919	0.03
663.328	0
663.737	-0
664.145	0.01
664.554	-0
664.963	-0
665.372	-0
665.78	0.01
666.189	-0.02
666.597	0.01
667.006	-0
667.414	0
667.823	0.01
668.231	-0.01
668.639	-0.01
669.047	-0.01
669.455	-0.03
669.863	-0.02
670.271	-0.01
670.679	-0.02
671.087	-0.03
671.495	-0.02
671.903	-0.03
672.31	-0.03
672.718	-0.03
673.126	-0.04
673.533	-0.04
673.941	-0.04
674.348	-0.02
674.755	-0.02
675.163	-0.03
675.57	-0.04
675.977	-0.05
676.384	-0.02
676.791	-0.03
677.198	-0.03
677.605	-0.03
678.012	-0.04
678.419	-0.03
678.825	-0.04
679.232	-0.04
679.639	-0.05
680.045	-0.06
680.452	-0.02
680.858	-0.05
681.264	-0.05
681.671	-0.05
682.077	-0.04
682.483	-0.04
682.889	-0.04
683.295	-0.05
683.701	-0.05
684.107	-0.05
684.513	-0.02
684.919	-0.04
685.325	-0.05
685.731	-0.05
686.136	-0.07
686.542	-0.05
686.947	-0.06
687.353	-0.06
687.758	-0.05
688.164	-0.03
688.569	-0.04
688.974	-0.06
689.379	-0.05
689.784	-0.05
690.19	-0.04
690.595	-0.04
690.999	-0.03
691.404	-0.04
691.809	-0.06
692.214	-0.03
692.619	-0.06
693.023	-0.05
693.428	-0.06
693.832	-0.03
694.237	-0.04
694.641	-0.05
695.046	-0.04
695.45	-0.06
695.854	-0.04
696.258	-0.04
696.662	-0.06
697.066	-0.06
697.47	-0.07
697.874	-0.04
698.278	-0.06
698.682	-0.09
699.086	-0.09
699.489	-0.04
699.893	-0.01
700.297	-0.04
700.7	-0.06
701.104	-0.04
701.507	-0.04
701.91	-0.05
702.314	-0.06
702.717	-0.05
703.12	-0.05
703.523	-0.06
703.926	-0.06
704.329	-0.07
704.732	-0.06
705.135	-0.05
705.538	-0.04
705.94	-0.05
706.343	-0.05
706.746	-0.04
707.148	-0.03
707.551	-0.05
707.953	-0.06
708.355	-0.09
708.758	-0.09
709.16	-0.05
709.562	-0.03
709.964	-0.04
710.366	-0.05
710.768	-0.05
711.17	-0.04
711.572	-0.04
711.974	-0.06
712.376	-0.06
712.777	-0.05
713.179	-0.02
713.581	-0.04
713.982	-0.06
714.384	-0.07
714.785	-0.06
715.186	-0.06
715.588	-0.06
715.989	-0.05
716.39	-0.06
716.791	-0.06
717.192	-0.07
717.593	-0.04
717.994	-0.03
718.395	-0.05
718.796	-0.05
719.196	-0.05
719.597	-0.05
719.998	-0.05
720.398	-0.05
720.799	-0.03
721.199	-0.05
721.6	-0.06
722	-0.06
722.4	-0.05
722.8	-0.06
723.201	-0.06
723.601	-0.04
724.001	-0.07
724.401	-0.04
724.8	-0.04
725.2	-0.05
725.6	-0.04
726	-0.06
726.399	-0.06
726.799	-0.07
727.199	-0.07
727.598	-0.05
727.997	-0.04
728.397	-0.06
728.796	-0.05
729.195	-0.05
729.594	-0.06
729.994	-0.06
730.393	-0.04
730.792	-0.03
731.19	-0.05
731.589	-0.06
731.988	-0.07
732.387	-0.06
732.786	-0.05
733.184	-0.06
733.583	-0.03
733.981	-0.06
734.38	-0.06
734.778	-0.06
735.176	-0.05
735.575	-0.04
735.973	-0.05
736.371	-0.04
736.769	-0.04
737.167	-0.04
737.565	-0.06
737.963	-0.04
738.361	-0.04
738.759	-0.04
739.156	-0.05
739.554	-0.06
739.951	-0.05
740.349	-0.06
740.746	-0.05
741.144	-0.06
741.541	-0.03
741.938	-0.02
742.336	-0.05
742.733	-0.05
743.13	-0.05
743.527	-0.03
743.924	-0.06
744.321	-0.05
744.718	-0.04
745.115	-0.03
745.511	-0.04
745.908	-0.04
746.305	-0.04
746.701	-0.04
747.098	-0.05
747.494	-0.05
747.89	-0.05
748.287	-0.05
748.683	-0.04
749.079	-0.04
749.475	-0.05
749.871	-0.04
750.267	-0.04
750.663	-0.06
751.059	-0.06
751.455	-0.2
751.851	-0.21
752.246	-0.09
752.642	0.05
753.038	0.05
753.433	-0.05
753.829	-0.02
754.224	-0.03
754.619	-0.05
755.015	-0.07
755.41	-0.06
755.805	-0.06
756.2	-0.05
756.595	-0.04
756.99	-0.07
757.385	-0.05
757.78	-0.06
758.175	-0.05
758.569	-0.09
758.964	-0.06
759.359	-0.04
759.753	-0.06
760.148	-0
760.542	-0.03
760.936	-0.04
761.331	-0.06
761.725	-0.04
762.119	-0.05
762.513	-0.07
762.907	-0.07
763.301	-0.03
763.695	-0.03
764.089	-0.06
764.483	-0.08
764.877	-0.11
765.27	-0.07
765.664	-0.01
766.057	-0.03
766.451	-0.07
766.844	-0.05
767.238	-0.02
767.631	-0.01
768.024	-0.04
768.417	-0.03
768.811	-0.05
769.204	-0.05
769.597	-0.06
769.99	-0.08
770.383	-0.07
770.775	-0.04
771.168	-0.02
771.561	-0.05
771.953	-0.05
772.346	-0.05
772.739	-0.06
773.131	-0.04
773.523	-0.07
773.916	-0.06
774.308	-0.04
774.7	-0.04
775.092	-0.02
775.484	-0.05
775.876	-0.05
776.268	-0.05
776.66	-0.04
777.052	-0.07
777.444	-0.03
777.836	-0.05
778.227	-0.06
778.619	-0.05
779.01	-0.04
779.402	-0.06
779.793	-0.05
780.185	-0.06
780.576	-0.05
780.967	-0.05
781.358	-0.05
781.749	-0.04
782.14	-0.04
782.531	-0.08
782.922	-0.06
783.313	-0.05
783.704	-0.03
784.095	-0.05
784.485	-0.05
784.876	-0.06
785.266	-0.05
785.657	-0.05
786.047	-0.03
786.438	-0.05
786.828	-0.05
787.218	-0.06
787.608	-0.07
787.998	-0.06
788.389	-0.03
788.779	-0.03
789.168	-0.05
789.558	-0.07
789.948	-0.07
790.338	-0.07
790.728	-0.04
791.117	-0.03
791.507	-0.04
791.896	-0.06
792.286	-0.07
792.675	-0.05
793.064	-0.07
793.454	-0.04
793.843	-0.04
794.232	-0.04
794.621	-0.06
795.01	-0.06
795.399	-0.06
795.788	-0.08
796.176	-0.07
796.565	-0.03
796.954	-0.02
797.343	-0.03
797.731	-0.04
798.12	-0.05
798.508	-0.06
798.896	-0.07
799.285	-0.06
799.673	-0.05
800.061	-0.04
800.449	-0.05
800.837	-0.07
801.225	-0.04
801.613	-0.06
802.001	-0.06
802.389	-0.05
802.777	-0.05
803.164	-0.03
803.552	-0.04
803.94	-0.06
804.327	-0.07
804.715	-0.07
805.102	-0.08
805.489	-0.04
805.877	-0.04
806.264	-0.04
806.651	-0.05
807.038	-0.08
807.425	-0.08
807.812	-0.07
808.199	-0.05
808.586	-0.05
808.972	-0.03
809.359	-0.05
809.746	-0.06
810.132	-0.02
810.519	-0.03
810.905	-0.04
811.292	-0.06
811.678	-0.06
812.064	-0.06
812.45	-0.06
812.836	-0.08
813.223	-0.06
813.609	-0.01
813.995	-0.02
814.38	-0.07
814.766	-0.06
815.152	-0.09
815.538	-0.05
815.923	-0.04
816.309	-0.03
816.694	-0.09
817.08	-0.06
817.465	-0.02
817.851	-0.05
818.236	-0.06
818.621	-0.06
819.006	-0.05
819.391	-0.03
819.776	-0.03
820.161	-0.05
820.546	-0.04
820.931	-0.04
821.316	-0.04
821.7	-0.07
822.085	-0.07
822.47	-0.04
822.854	-0.02
823.239	-0.01
823.623	-0.06
824.007	-0.05
824.391	-0.05
824.776	-0.06
825.16	-0.06
825.544	-0.04
825.928	-0.04
826.312	-0.06
826.696	-0.08
827.08	-0.05
827.463	-0.07
827.847	-0.07
828.231	-0.05
828.614	-0.06
828.998	-0.05
829.381	-0.03
829.765	-0.01
830.148	-0.02
830.531	-0.04
830.914	-0.05
831.297	-0.03
831.681	-0.04
832.064	-0.05
832.446	-0.05
832.829	-0.03
833.212	-0.04
833.595	-0.04
833.978	-0.05
834.36	-0.05
834.743	-0.04
835.125	-0.04
835.508	-0.04
835.89	-0.05
836.272	-0.03
836.655	-0.03
837.037	-0.05
837.419	-0.03
837.801	-0.03
838.183	-0.05
838.565	-0.04
838.947	-0.04
839.329	-0.03
839.71	-0.05
840.092	-0.05
840.474	-0.03
840.855	-0.04
841.237	-0.03
841.618	-0.06
842	-0.08
842.381	-0.03
842.762	-0.01
843.143	-0.04
843.525	-0.07
843.906	-0.04
844.287	-0.03
844.667	-0.03
845.048	-0.03
845.429	-0.04
845.81	-0.03
846.191	-0.04
846.571	-0.07
846.952	-0.03
847.332	-0.04
847.713	-0.04
848.093	-0.04
848.473	-0.05
848.854	-0.06
849.234	-0.04
849.614	-0.03
849.994	-0.03
850.374	-0.04
850.754	-0.04
851.134	-0.04
851.513	-0.05
851.893	-0.03
852.273	-0.03
852.652	-0.05
853.032	-0.05
853.411	-0.04
853.791	-0.03
854.17	-0.05
854.55	-0.04
854.929	-0.03
855.308	-0.02
855.687	-0.04
856.066	-0.03
856.445	-0.04
856.824	-0.03
857.203	-0.05
857.582	-0.03
857.96	-0.04
858.339	-0.01
858.718	-0
859.096	-0.03
859.475	-0.03
859.853	-0.03
860.231	-0.03
860.61	-0.03
860.988	-0.03
861.366	-0.01
861.744	-0.04
862.122	-0.03
862.5	-0.05
862.878	-0.04
863.256	-0.04
863.633	-0.03
864.011	-0.04
864.389	-0.02
864.766	-0.04
865.144	-0.05
865.521	-0.01
865.899	-0.02
866.276	-0.04
866.653	-0.03
867.031	-0.02
867.408	-0.04
867.785	-0.03
868.162	-0.01
868.539	-0.01
868.916	-0.02
869.292	-0.06
869.669	-0.04
870.046	-0.03
870.422	-0.05
870.799	-0.03
871.175	-0.03
871.552	-0.04
871.928	-0.03
872.305	-0.04
872.681	-0.03
873.057	-0.02
873.433	-0.03
873.809	-0.02
874.185	-0.03
874.561	-0.03
874.937	-0.03
875.313	-0.03
875.688	-0.03
876.064	-0.04
876.44	-0.04
876.815	-0.04
877.191	-0.02
877.566	-0.03
877.942	-0.03
878.317	-0.02
878.692	-0.04
879.067	-0
879.442	-0.02
879.817	-0.02
880.192	-0.03
880.567	-0.01
880.942	-0.02
881.317	-0.04
881.691	-0.02
882.066	-0.03
882.441	-0.01
882.815	-0.04
883.19	-0.04
883.564	-0.05
883.938	-0.01
884.313	-0.02
884.687	-0.02
885.061	-0.04
885.435	-0.04
885.809	-0.01
886.183	-0.03
886.557	0.01
886.931	-0.02
887.305	-0.03
887.678	-0.03
888.052	-0.04
888.425	-0.02
888.799	-0.02
889.172	-0.02
889.546	-0.03
889.919	-0.04
890.292	-0.03
890.665	-0.04
891.039	-0.03
891.412	-0.03
891.785	-0.03
892.157	-0.01
892.53	-0.03
892.903	-0.03
893.276	-0.02
893.648	-0.04
894.021	-0.02
894.394	-0.01
894.766	-0
895.139	-0.01
895.511	-0.04
895.883	-0.02
896.255	-0.02
896.627	-0.05
897	-0.03
897.372	-0.04
897.744	-0.03
898.115	-0.02
898.487	-0.02
898.859	-0.01
899.231	-0.02
899.602	0
899.974	-0.02
900.345	-0.01
900.717	0
901.088	-0.01
901.46	-0.02
901.831	-0.04
902.202	-0.02
902.573	-0.01
902.944	-0.04
903.315	-0.02
903.686	-0.02
904.057	-0.02
904.428	-0.02
904.799	-0.04
905.169	-0.02
905.54	-0.02
905.91	-0.02
906.281	-0.01
906.651	-0.01
907.022	-0.01
907.392	0.01
907.762	-0.02
908.132	-0
908.502	-0.01
908.872	-0.02
909.242	-0.02
909.612	-0.02
909.982	-0.01
910.352	-0.02
910.722	-0.03
911.091	-0.03
911.461	-0.05
911.83	-0.01
912.2	-0.01
912.569	-0.01
912.938	-0.02
913.308	-0.01
913.677	-0.03
914.046	-0.04
914.415	-0.01
914.784	-0.01
915.153	-0.04
915.522	-0
915.891	-0.02
916.259	-0
916.628	-0.05
916.997	-0.01
917.365	-0
917.734	-0.02
918.102	-0.05
918.47	-0.01
918.839	-0
919.207	-0.03
919.575	-0
919.943	0.01
920.311	-0.04
920.679	-0.03
921.047	-0.03
921.415	0.02
921.783	-0.03
922.15	-0.03
922.518	-0.02
922.886	-0.03
923.253	-0.06
923.62	0
923.988	-0.03
924.355	-0.03
924.722	-0.04
925.09	-0.02
925.457	-0.08
925.824	-0.01
926.191	-0.01
926.558	-0.04
926.925	-0.05
927.291	0.01
927.658	0
928.025	-0.01
928.391	-0.03
928.758	-0.02
929.124	-0.06
929.491	-0.1
929.857	-0.02
930.223	0
930.59	-0.06
930.956	-0.04
931.322	0.01
931.688	-0.04
932.054	-0.04
932.42	0.03
932.785	0.02
933.151	0.01
933.517	0.02
933.882	-0.04
934.248	-0
934.613	0
934.979	-0.01
935.344	-0.02
935.71	-0.02
936.075	-0.03
936.44	-0.04
936.805	-0.01
937.17	0.02
937.535	-0.03
937.9	0.06
938.265	0.04
938.63	-0.05
938.994	-0
939.359	-0.04
939.724	-0
940.088	0.02
940.453	0.01
940.817	-0.05
941.181	0.03
941.545	-0.09
941.91	-0.01
942.274	0.03
942.638	-0.03
943.002	-0.03
943.366	-0.01
943.73	-0.01
944.093	-0.02
944.457	0.1
944.821	0.09
945.184	-0
945.548	-0.02
945.911	-0.03
946.275	-0.01
946.638	0.06
947.001	0.02
947.365	-0.05
947.728	-0.01
948.091	-0.05
948.454	0.01
948.817	0.05
949.18	0.05
949.543	0.02
949.905	-0.06
950.268	-0.09
950.631	0.03
950.993	0.03
951.356	-0.04
951.718	-0.04
952.08	-0.07
952.443	-0.03
952.805	-0.05
953.167	0.03
953.529	-0.06
953.891	0.04
954.253	-0.05
954.615	0.06
954.977	0.08
955.339	0.02
955.7	0.04
956.062	-0.09
956.424	-0.03
956.785	0.13
957.147	-0.03
957.508	0.03
957.869	0.04
958.231	0.09
958.592	-0.05
958.953	-0.15
959.314	0
959.675	0.04
960.036	0.23
960.397	0.21
960.757	-0.18
961.118	0.02
961.479	0.09
961.839	0.36
962.2	-0.33
962.56	-0.43
962.921	-0.46
963.281	-0.05
963.641	-0.31
964.002	0.09
964.362	0.22
964.722	0.09
965.082	0.17
965.442	0.01
965.801	-0
966.161	0.41
966.521	-0.18
966.881	0.16
967.24	-0.1
967.6	-0.01
967.959	0.22
968.319	-0.35
968.678	0.08
969.037	-0.07
969.397	0.35
969.756	-0.16
970.115	0.22
970.474	0.1
970.833	0.32
971.192	0.09
971.55	0.01
971.909	0.05
972.268	-0.04
972.626	-0.17
972.985	-0.11
973.343	0.32
973.702	-0.08
974.06	-0.22
974.418	-0.14
974.777	-0.05
975.135	0.11
975.493	0.7
975.851	0.09
976.209	0.09
976.567	0.09
976.925	-0.1
977.282	0.04
977.64	0.74
977.998	-0.08
978.355	0.32
978.713	-0.52
979.07	-0.09
979.428	-0.43
979.785	-0.04
980.142	-0
980.499	0.47
980.856	-0.06
981.213	-0
981.57	-0.63
981.927	-0
982.284	-0.75
982.641	0.03
982.997	-0.06
983.354	0.26
983.711	0.3
984.067	-0.16
984.424	-0.17
984.78	-0
985.136	-0
985.493	0.05
985.849	-0.41
986.205	0.03
986.561	0.2
986.917	-0
987.273	-0.15
987.629	0.37
987.984	0.3
988.34	-0.05
988.696	-0
989.051	-0.17
989.407	0.03
989.762	1.34
990.118	-0.18
990.473	-0.48
990.828	0.76
991.183	-0
991.538	-0.19
991.893	-0
992.248	0.17
992.603	0.21
992.958	-0.2
993.313	1.24
993.668	-0.23
994.022	-0
994.377	-0.47
994.731	0.06
995.086	-0.61
995.44	-0
995.794	-0.23
996.149	0.05
996.503	-0.33
996.857	0.03
997.211	-0.84
997.565	-0
997.919	-0
998.273	0.06
998.627	-0
998.98	-0
999.334	0.29
999.687	-0.23
1000.041	0.04
1000.394	-0
1000.748	0.36
1001.101	-0
1001.454	2.19
1001.808	-0.25
1002.161	-0
1002.514	-0.3
1002.867	-0
1003.22	-0
1003.572	-0.37
1003.925	-0.41
1004.278	-0
1004.631	-0
1004.983	-0.65
1005.336	0.19
1005.688	-0
1006.04	-0.4
1006.393	-0
1006.745	-0.06
1007.097	0.45
1007.449	-0.4
1007.801	-0
1008.153	-0.26
1008.505	-0
1008.857	-0.16
1009.209	-0
1009.561	-0
1009.912	0.01
1010.264	-0.68
1010.615	-0.14
1010.967	-0.19
1011.318	0.3
1011.669	-0.07
1012.021	-0.1
1012.372	-0
1012.723	-0
1013.074	-0.25
1013.425	0.2
1013.776	-0.19
1014.127	-0
1014.477	-0.2
1014.828	0.41
1015.179	-0.27
1015.529	-0.74
1015.88	0.2
1016.23	-0.57
1016.581	-0.72
1016.931	0.53
1017.281	-0.22
1017.631	-0.23
1017.982	-0
1018.332	2.09
1018.682	0.06
1019.031	-0
1019.381	-1.06
1019.731	-0.69
1020.081	-0.45
1020.43	0.51
1020.78	0.06
1021.129	0.24
1021.479	0.91
1021.828	0.25
1022.178	-0.36
1022.527	0.36
1022.876	0.2
1023.225	-0.63
1023.574	0.88
1023.923	0.32
1024.272	-0.61
1024.621	0.31
1024.97	-0.28
1025.318	-0.09
1025.667	-0.19
1026.015	0.81
1026.364	-0
1026.712	-0
1027.061	-0
1027.409	-0.52
1027.757	-0
1028.105	-0
1028.453	-0
