Data from dråber_Absorbance_15-17-07-273.txt Node
Date: Tue Apr 26 15:17:07 CEST 2022
User: au615756
Spectrometer: FLMS05815
Trigger mode: 0
Integration Time (sec): 5.000000E-1
Scans to average: 1
Electric dark correction enabled: true
Nonlinearity correction enabled: false
Boxcar width: 0
XAxis mode: Wavelengths
Number of Pixels in Spectrum: 2048
>>>>>Begin Spectral Data<<<<<
187.008	0.26
187.477	0.26
187.945	0.26
188.413	-1.17
188.881	-0.2
189.349	-0.56
189.817	-0.35
190.285	0.06
190.753	-0.2
191.22	-0
191.688	-0.53
192.156	0.61
192.623	0.17
193.091	-1.12
193.559	0.05
194.026	0.06
194.493	-0.06
194.961	-0
195.428	0.15
195.895	-0
196.363	-0.34
196.83	0.72
197.297	-0.65
197.764	-0.43
198.231	0.09
198.698	-0.25
199.165	-0.09
199.632	-0.06
200.099	-0.05
200.566	0.15
201.032	0.11
201.499	0.13
201.966	-0.01
202.432	0.07
202.899	-0.15
203.365	0.13
203.832	0.07
204.298	-0.11
204.764	0.12
205.231	0.16
205.697	-0.01
206.163	0.09
206.629	-0.01
207.095	0.09
207.561	0.08
208.027	0.21
208.493	0.07
208.959	0.18
209.425	0.06
209.891	0.33
210.356	0.13
210.822	0.5
211.288	0.46
211.753	0.22
212.219	0.28
212.684	0.44
213.15	0.37
213.615	0.46
214.08	0.57
214.546	0.62
215.011	0.66
215.476	0.74
215.941	0.86
216.406	0.69
216.871	0.93
217.336	1.1
217.801	1
218.266	1.05
218.731	1.11
219.196	1.26
219.66	1.26
220.125	1.46
220.59	1.45
221.054	1.66
221.519	1.83
221.983	1.44
222.448	1.68
222.912	1.65
223.376	1.71
223.841	1.95
224.305	1.87
224.769	1.68
225.233	1.92
225.697	1.98
226.161	1.82
226.625	1.96
227.089	1.76
227.553	2.01
228.017	1.99
228.48	1.93
228.944	1.82
229.408	2.03
229.871	1.97
230.335	1.85
230.798	2.01
231.262	1.9
231.725	2.09
232.188	1.85
232.652	2
233.115	2.02
233.578	2.16
234.041	1.98
234.504	1.89
234.967	1.99
235.43	2.02
235.893	2
236.356	1.91
236.819	2.03
237.282	1.93
237.745	2.29
238.207	2.03
238.67	2.18
239.132	2.18
239.595	2.09
240.057	2.02
240.52	1.83
240.982	1.85
241.445	1.89
241.907	1.87
242.369	2
242.831	1.89
243.293	1.88
243.755	1.9
244.217	1.82
244.679	1.79
245.141	1.81
245.603	1.8
246.065	1.8
246.527	1.68
246.988	1.73
247.45	1.71
247.912	1.64
248.373	1.62
248.835	1.62
249.296	1.6
249.758	1.56
250.219	1.51
250.68	1.52
251.142	1.55
251.603	1.46
252.064	1.47
252.525	1.4
252.986	1.4
253.447	1.37
253.908	1.39
254.369	1.34
254.83	1.33
255.29	1.28
255.751	1.3
256.212	1.32
256.673	1.26
257.133	1.26
257.594	1.22
258.054	1.23
258.515	1.23
258.975	1.18
259.435	1.17
259.895	1.17
260.356	1.16
260.816	1.15
261.276	1.14
261.736	1.11
262.196	1.13
262.656	1.11
263.116	1.12
263.576	1.1
264.036	1.09
264.495	1.08
264.955	1.09
265.415	1.05
265.874	1.06
266.334	1.05
266.793	1.02
267.253	1.01
267.712	1.02
268.172	1.01
268.631	1
269.09	1.01
269.549	0.98
270.008	0.98
270.468	0.97
270.927	0.96
271.386	0.96
271.844	0.94
272.303	0.94
272.762	0.93
273.221	0.93
273.68	0.92
274.138	0.91
274.597	0.91
275.056	0.9
275.514	0.9
275.973	0.89
276.431	0.89
276.889	0.87
277.348	0.87
277.806	0.84
278.264	0.82
278.722	0.83
279.18	0.8
279.638	0.79
280.096	0.78
280.554	0.76
281.012	0.77
281.47	0.76
281.928	0.75
282.386	0.72
282.843	0.73
283.301	0.71
283.758	0.7
284.216	0.7
284.674	0.69
285.131	0.67
285.588	0.65
286.046	0.64
286.503	0.64
286.96	0.62
287.417	0.59
287.874	0.58
288.331	0.56
288.789	0.54
289.245	0.52
289.702	0.52
290.159	0.5
290.616	0.48
291.073	0.45
291.529	0.45
291.986	0.44
292.443	0.42
292.899	0.41
293.356	0.4
293.812	0.4
294.269	0.39
294.725	0.37
295.181	0.37
295.637	0.35
296.094	0.35
296.55	0.36
297.006	0.34
297.462	0.34
297.918	0.34
298.374	0.33
298.83	0.33
299.285	0.32
299.741	0.32
300.197	0.32
300.653	0.32
301.108	0.32
301.564	0.31
302.019	0.31
302.475	0.31
302.93	0.31
303.385	0.32
303.841	0.3
304.296	0.3
304.751	0.3
305.206	0.31
305.661	0.3
306.116	0.3
306.571	0.29
307.026	0.29
307.481	0.29
307.936	0.29
308.391	0.29
308.846	0.28
309.3	0.29
309.755	0.28
310.209	0.28
310.664	0.27
311.118	0.27
311.573	0.28
312.027	0.28
312.481	0.27
312.936	0.27
313.39	0.26
313.844	0.26
314.298	0.26
314.752	0.27
315.206	0.26
315.66	0.25
316.114	0.25
316.568	0.26
317.022	0.25
317.475	0.25
317.929	0.25
318.383	0.24
318.836	0.24
319.29	0.25
319.743	0.24
320.196	0.24
320.65	0.24
321.103	0.24
321.556	0.23
322.01	0.23
322.463	0.23
322.916	0.22
323.369	0.23
323.822	0.22
324.275	0.22
324.728	0.22
325.181	0.21
325.633	0.21
326.086	0.21
326.539	0.21
326.991	0.21
327.444	0.19
327.896	0.18
328.349	0.19
328.801	0.21
329.254	0.21
329.706	0.19
330.158	0.19
330.61	0.18
331.062	0.18
331.515	0.19
331.967	0.19
332.419	0.18
332.871	0.18
333.322	0.18
333.774	0.18
334.226	0.17
334.678	0.18
335.129	0.17
335.581	0.18
336.033	0.17
336.484	0.17
336.936	0.17
337.387	0.17
337.838	0.16
338.29	0.17
338.741	0.17
339.192	0.16
339.643	0.16
340.094	0.17
340.545	0.16
340.996	0.16
341.447	0.16
341.898	0.15
342.349	0.17
342.8	0.15
343.25	0.15
343.701	0.16
344.152	0.15
344.602	0.15
345.053	0.15
345.503	0.15
345.954	0.15
346.404	0.14
346.854	0.15
347.305	0.15
347.755	0.14
348.205	0.15
348.655	0.14
349.105	0.15
349.555	0.15
350.005	0.14
350.455	0.14
350.905	0.14
351.354	0.14
351.804	0.14
352.254	0.14
352.703	0.14
353.153	0.14
353.602	0.13
354.052	0.14
354.501	0.13
354.95	0.14
355.4	0.14
355.849	0.13
356.298	0.14
356.747	0.13
357.196	0.14
357.645	0.13
358.094	0.14
358.543	0.14
358.992	0.13
359.441	0.13
359.89	0.12
360.338	0.13
360.787	0.13
361.236	0.12
361.684	0.12
362.133	0.13
362.581	0.12
363.029	0.12
363.478	0.12
363.926	0.13
364.374	0.13
364.822	0.12
365.271	0.12
365.719	0.11
366.167	0.13
366.615	0.13
367.062	0.12
367.51	0.13
367.958	0.12
368.406	0.13
368.854	0.12
369.301	0.12
369.749	0.12
370.196	0.13
370.644	0.12
371.091	0.12
371.538	0.12
371.986	0.12
372.433	0.13
372.88	0.12
373.327	0.12
373.775	0.12
374.222	0.12
374.669	0.12
375.115	0.12
375.562	0.11
376.009	0.11
376.456	0.13
376.903	0.12
377.349	0.12
377.796	0.11
378.243	0.13
378.689	0.13
379.135	0.12
379.582	0.12
380.028	0.12
380.475	0.12
380.921	0.12
381.367	0.12
381.813	0.12
382.259	0.13
382.705	0.12
383.151	0.13
383.597	0.12
384.043	0.13
384.489	0.12
384.934	0.13
385.38	0.12
385.826	0.12
386.271	0.12
386.717	0.12
387.162	0.13
387.608	0.11
388.053	0.13
388.499	0.12
388.944	0.12
389.389	0.11
389.834	0.12
390.279	0.12
390.724	0.12
391.169	0.13
391.614	0.12
392.059	0.11
392.504	0.11
392.949	0.11
393.394	0.13
393.838	0.11
394.283	0.1
394.727	0.1
395.172	0.12
395.616	0.14
396.061	0.12
396.505	0.12
396.95	0.11
397.394	0.11
397.838	0.1
398.282	0.12
398.726	0.12
399.17	0.12
399.614	0.11
400.058	0.11
400.502	0.11
400.946	0.14
401.39	0.12
401.833	0.13
402.277	0.12
402.721	0.12
403.164	0.12
403.608	0.13
404.051	0.12
404.494	0.12
404.938	0.13
405.381	0.12
405.824	0.13
406.267	0.12
406.71	0.12
407.154	0.12
407.597	0.13
408.039	0.13
408.482	0.13
408.925	0.13
409.368	0.12
409.811	0.13
410.253	0.11
410.696	0.13
411.139	0.12
411.581	0.11
412.024	0.12
412.466	0.11
412.908	0.12
413.351	0.11
413.793	0.11
414.235	0.11
414.677	0.11
415.119	0.11
415.561	0.11
416.003	0.11
416.445	0.1
416.887	0.1
417.329	0.1
417.771	0.1
418.212	0.1
418.654	0.1
419.096	0.1
419.537	0.1
419.979	0.1
420.42	0.08
420.861	0.09
421.303	0.09
421.744	0.07
422.185	0.08
422.626	0.06
423.067	0.06
423.508	0.07
423.949	0.06
424.39	0.08
424.831	0.09
425.272	0.07
425.713	0.07
426.154	0.05
426.594	0.06
427.035	0.07
427.475	0.08
427.916	0.07
428.356	0.05
428.797	0.05
429.237	0.05
429.677	0.06
430.118	0.06
430.558	0.05
430.998	0.05
431.438	0.03
431.878	0.05
432.318	0.04
432.758	0.05
433.198	0.06
433.638	0.06
434.077	0.05
434.517	0.05
434.957	0.05
435.396	0.04
435.836	0.04
436.275	0.03
436.715	0.03
437.154	0.03
437.593	0.02
438.032	0.02
438.472	0.03
438.911	0.04
439.35	0.04
439.789	0.03
440.228	0.03
440.667	0.03
441.106	0.04
441.544	0.04
441.983	0.04
442.422	0.02
442.86	0.02
443.299	0.03
443.738	0.03
444.176	0.04
444.615	0.02
445.053	0.01
445.491	0.03
445.929	0.02
446.368	0.01
446.806	0.03
447.244	0.03
447.682	0.02
448.12	0.02
448.558	0.02
448.996	0.03
449.434	0.01
449.871	0.02
450.309	0.02
450.747	0.02
451.184	0.01
451.622	0.01
452.059	0.01
452.497	0.03
452.934	0.01
453.371	0.02
453.809	0.02
454.246	0.02
454.683	0.02
455.12	0.02
455.557	0.02
455.994	0.01
456.431	0.03
456.868	0.01
457.305	0.02
457.742	0.01
458.178	0.01
458.615	0.02
459.052	0
459.488	0.02
459.925	0.01
460.361	0.01
460.797	0.01
461.234	0.01
461.67	0.01
462.106	0.01
462.542	0.02
462.979	0
463.415	0.02
463.851	0.02
464.287	0.01
464.722	0.01
465.158	-0
465.594	-0.01
466.03	0.01
466.465	-0.01
466.901	0
467.337	0
467.772	0
468.208	0.02
468.643	0.02
469.078	0
469.514	-0
469.949	-0.01
470.384	0
470.819	0.01
471.254	0.01
471.689	0
472.124	0.01
472.559	0.02
472.994	-0.01
473.429	0.02
473.863	-0.01
474.298	0
474.733	0
475.167	-0
475.602	0
476.036	-0.01
476.471	-0.02
476.905	-0
477.339	0.01
477.773	-0
478.208	-0
478.642	-0
479.076	-0
479.51	-0.01
479.944	0
480.378	0
480.811	-0.01
481.245	-0
481.679	-0
482.113	-0.01
482.546	0
482.98	-0.01
483.413	-0.01
483.847	-0.01
484.28	-0.01
484.713	0
485.147	0
485.58	-0.01
486.013	-0.01
486.446	-0.02
486.879	-0.01
487.312	-0.01
487.745	-0.02
488.178	0
488.611	-0
489.044	-0.01
489.477	-0
489.909	0.02
490.342	-0
490.774	-0.01
491.207	-0.01
491.639	-0
492.072	-0
492.504	-0.02
492.936	-0
493.369	-0.01
493.801	-0
494.233	-0.01
494.665	-0.02
495.097	-0
495.529	-0.02
495.961	-0.01
496.393	-0.01
496.824	-0.01
497.256	-0.03
497.688	-0.03
498.119	-0.03
498.551	-0
498.982	0
499.414	-0
499.845	-0.02
500.277	-0.02
500.708	-0.02
501.139	-0.01
501.57	-0.03
502.001	-0
502.432	-0.03
502.863	-0.02
503.294	-0.02
503.725	-0.02
504.156	-0.02
504.587	-0.01
505.017	-0.02
505.448	-0.01
505.879	-0.02
506.309	-0.02
506.74	-0.02
507.17	-0.02
507.601	-0.01
508.031	-0.02
508.461	-0.02
508.891	-0.02
509.321	-0.02
509.752	-0.04
510.182	-0.02
510.612	-0.02
511.042	-0.01
511.471	-0.03
511.901	-0.02
512.331	-0.02
512.761	-0.02
513.19	-0.02
513.62	-0.01
514.049	-0.02
514.479	-0.01
514.908	-0.02
515.338	-0.02
515.767	-0.01
516.196	-0.02
516.625	-0.02
517.055	-0.01
517.484	-0.02
517.913	-0.03
518.342	-0.02
518.771	-0.02
519.199	-0.01
519.628	-0.03
520.057	-0.03
520.486	-0.02
520.914	-0.02
521.343	-0.01
521.771	-0.02
522.2	-0.02
522.628	-0.03
523.057	-0.02
523.485	-0.03
523.913	-0.03
524.341	-0.03
524.77	-0.03
525.198	-0.03
525.626	-0.03
526.054	-0.03
526.481	-0.03
526.909	-0.02
527.337	-0.02
527.765	-0.03
528.192	-0.02
528.62	-0.02
529.048	-0.02
529.475	-0.02
529.903	-0.03
530.33	-0.01
530.757	-0.03
531.185	-0.01
531.612	-0
532.039	-0.03
532.466	-0.02
532.893	-0.02
533.32	-0.02
533.747	-0.01
534.174	-0.02
534.601	-0.02
535.028	-0.04
535.454	-0.02
535.881	-0.02
536.308	-0.02
536.734	-0.01
537.161	-0.02
537.587	-0.01
538.013	-0.02
538.44	-0.01
538.866	-0.02
539.292	-0.03
539.718	-0.04
540.144	-0.02
540.57	-0.02
540.996	-0.02
541.422	-0.02
541.848	-0.01
542.274	-0.02
542.7	-0.03
543.125	-0.03
543.551	-0.03
543.977	-0.03
544.402	-0.02
544.828	-0.03
545.253	-0.03
545.678	-0.03
546.104	-0.04
546.529	-0.02
546.954	-0.02
547.379	-0.01
547.804	-0.02
548.229	-0.03
548.654	-0.02
549.079	-0.03
549.504	-0.02
549.929	-0.02
550.353	0
550.778	-0.01
551.203	-0.01
551.627	-0.01
552.052	-0.02
552.476	-0.01
552.901	0
553.325	-0.01
553.749	-0.03
554.173	-0
554.598	0
555.022	0
555.446	0.01
555.87	0
556.294	0
556.718	0.01
557.141	-0.03
557.565	-0
557.989	0.02
558.412	0.02
558.836	0.01
559.26	-0.01
559.683	0.01
560.106	0.01
560.53	0.02
560.953	0.02
561.376	-0
561.8	-0
562.223	-0.01
562.646	0.01
563.069	0.02
563.492	0.02
563.915	0.02
564.337	0.02
564.76	0.02
565.183	0.02
565.606	0.03
566.028	0.04
566.451	0.03
566.873	0.03
567.296	0.03
567.718	0.05
568.14	0.05
568.563	0.02
568.985	0.03
569.407	0.01
569.829	0.04
570.251	0.03
570.673	0.03
571.095	0.03
571.517	0.03
571.939	0.04
572.361	0.05
572.782	0.05
573.204	0.04
573.625	0.07
574.047	0.07
574.468	0.08
574.89	0.05
575.311	0.04
575.732	0.08
576.154	0.07
576.575	0.08
576.996	0.08
577.417	0.1
577.838	0.09
578.259	0.08
578.68	0.07
579.101	0.07
579.522	0.04
579.942	0.08
580.363	0.13
580.784	0.14
581.204	0.12
581.625	0.07
582.045	0.11
582.465	0.08
582.886	0.06
583.306	0.05
583.726	0.12
584.146	0.16
584.566	0.14
584.986	0.14
585.406	0.13
585.826	0.1
586.246	0.07
586.666	0.07
587.086	0.09
587.505	0.14
587.925	0.15
588.345	0.14
588.764	0.11
589.184	0.11
589.603	0.11
590.022	0.14
590.442	0.13
590.861	0.14
591.28	0.13
591.699	0.11
592.118	0.12
592.537	0.13
592.956	0.13
593.375	0.11
593.794	0.11
594.212	0.12
594.631	0.08
595.05	0.12
595.468	0.18
595.887	0.18
596.305	0.18
596.724	0.13
597.142	0.12
597.56	0.15
597.979	0.17
598.397	0.15
598.815	0.13
599.233	0.14
599.651	0.14
600.069	0.15
600.487	0.14
600.905	0.14
601.322	0.19
601.74	0.19
602.158	0.18
602.575	0.22
602.993	0.21
603.41	0.21
603.828	0.2
604.245	0.19
604.663	0.18
605.08	0.16
605.497	0.16
605.914	0.21
606.331	0.22
606.748	0.23
607.165	0.19
607.582	0.21
607.999	0.23
608.416	0.23
608.832	0.23
609.249	0.25
609.666	0.25
610.082	0.29
610.499	0.27
610.915	0.26
611.332	0.25
611.748	0.26
612.164	0.26
612.58	0.29
612.997	0.27
613.413	0.28
613.829	0.29
614.245	0.28
614.661	0.29
615.076	0.3
615.492	0.3
615.908	0.32
616.324	0.31
616.739	0.31
617.155	0.36
617.57	0.38
617.986	0.38
618.401	0.34
618.817	0.35
619.232	0.36
619.647	0.35
620.062	0.36
620.477	0.38
620.892	0.39
621.307	0.37
621.722	0.36
622.137	0.38
622.552	0.42
622.967	0.39
623.381	0.38
623.796	0.37
624.211	0.42
624.625	0.44
625.04	0.42
625.454	0.44
625.868	0.44
626.283	0.42
626.697	0.44
627.111	0.45
627.525	0.45
627.939	0.44
628.353	0.43
628.767	0.45
629.181	0.43
629.595	0.46
630.009	0.46
630.422	0.45
630.836	0.42
631.249	0.45
631.663	0.45
632.076	0.46
632.49	0.43
632.903	0.45
633.316	0.45
633.73	0.42
634.143	0.45
634.556	0.44
634.969	0.42
635.382	0.42
635.795	0.41
636.208	0.4
636.621	0.41
637.033	0.4
637.446	0.39
637.859	0.41
638.271	0.38
638.684	0.41
639.096	0.38
639.509	0.36
639.921	0.36
640.333	0.35
640.746	0.35
641.158	0.34
641.57	0.32
641.982	0.31
642.394	0.34
642.806	0.33
643.218	0.32
643.63	0.28
644.041	0.29
644.453	0.28
644.865	0.26
645.276	0.25
645.688	0.26
646.099	0.24
646.511	0.26
646.922	0.24
647.333	0.21
647.745	0.2
648.156	0.21
648.567	0.19
648.978	0.19
649.389	0.18
649.8	0.16
650.211	0.16
650.622	0.15
651.032	0.17
651.443	0.15
651.854	0.16
652.264	0.14
652.675	0.11
653.085	0.12
653.496	0.12
653.906	0.1
654.316	0.1
654.726	0.09
655.137	0.07
655.547	0.08
655.957	0.09
656.367	0.05
656.777	0.03
657.187	-0.09
657.596	-0.04
658.006	0
658.416	0.18
658.826	0.26
659.235	0.11
659.645	0.03
660.054	0.02
660.463	0.02
660.873	0.02
661.282	0.02
661.691	0.02
662.1	0.02
662.51	-0.02
662.919	-0.01
663.328	-0.01
663.737	-0.02
664.145	-0.02
664.554	-0.03
664.963	-0.04
665.372	-0.04
665.78	-0.02
666.189	-0.05
666.597	-0.04
667.006	-0.03
667.414	-0.05
667.823	-0.04
668.231	-0.05
668.639	-0.06
669.047	-0.06
669.455	-0.07
669.863	-0.05
670.271	-0.06
670.679	-0.06
671.087	-0.06
671.495	-0.07
671.903	-0.07
672.31	-0.08
672.718	-0.08
673.126	-0.08
673.533	-0.08
673.941	-0.08
674.348	-0.05
674.755	-0.06
675.163	-0.06
675.57	-0.08
675.977	-0.09
676.384	-0.06
676.791	-0.08
677.198	-0.09
677.605	-0.09
678.012	-0.1
678.419	-0.08
678.825	-0.08
679.232	-0.09
679.639	-0.1
680.045	-0.1
680.452	-0.08
680.858	-0.09
681.264	-0.09
681.671	-0.09
682.077	-0.09
682.483	-0.08
682.889	-0.09
683.295	-0.1
683.701	-0.1
684.107	-0.1
684.513	-0.07
684.919	-0.09
685.325	-0.11
685.731	-0.11
686.136	-0.11
686.542	-0.09
686.947	-0.1
687.353	-0.11
687.758	-0.08
688.164	-0.08
688.569	-0.08
688.974	-0.1
689.379	-0.09
689.784	-0.11
690.19	-0.09
690.595	-0.1
690.999	-0.09
691.404	-0.11
691.809	-0.11
692.214	-0.09
692.619	-0.12
693.023	-0.12
693.428	-0.11
693.832	-0.07
694.237	-0.08
694.641	-0.09
695.046	-0.1
695.45	-0.11
695.854	-0.1
696.258	-0.1
696.662	-0.13
697.066	-0.11
697.47	-0.11
697.874	-0.08
698.278	-0.11
698.682	-0.14
699.086	-0.13
699.489	-0.09
699.893	-0.07
700.297	-0.07
700.7	-0.1
701.104	-0.1
701.507	-0.09
701.91	-0.1
702.314	-0.12
702.717	-0.1
703.12	-0.12
703.523	-0.13
703.926	-0.11
704.329	-0.12
704.732	-0.12
705.135	-0.1
705.538	-0.09
705.94	-0.09
706.343	-0.1
706.746	-0.11
707.148	-0.1
707.551	-0.1
707.953	-0.11
708.355	-0.14
708.758	-0.14
709.16	-0.1
709.562	-0.09
709.964	-0.09
710.366	-0.1
710.768	-0.09
711.17	-0.1
711.572	-0.11
711.974	-0.12
712.376	-0.11
712.777	-0.12
713.179	-0.09
713.581	-0.1
713.982	-0.12
714.384	-0.12
714.785	-0.11
715.186	-0.12
715.588	-0.11
715.989	-0.1
716.39	-0.12
716.791	-0.11
717.192	-0.11
717.593	-0.1
717.994	-0.09
718.395	-0.1
718.796	-0.11
719.196	-0.1
719.597	-0.11
719.998	-0.1
720.398	-0.1
720.799	-0.09
721.199	-0.1
721.6	-0.11
722	-0.11
722.4	-0.11
722.8	-0.12
723.201	-0.11
723.601	-0.1
724.001	-0.11
724.401	-0.11
724.8	-0.1
725.2	-0.1
725.6	-0.09
726	-0.1
726.399	-0.11
726.799	-0.12
727.199	-0.13
727.598	-0.1
727.997	-0.11
728.397	-0.11
728.796	-0.1
729.195	-0.11
729.594	-0.12
729.994	-0.12
730.393	-0.1
730.792	-0.09
731.19	-0.1
731.589	-0.1
731.988	-0.12
732.387	-0.11
732.786	-0.11
733.184	-0.1
733.583	-0.07
733.981	-0.1
734.38	-0.11
734.778	-0.11
735.176	-0.09
735.575	-0.09
735.973	-0.1
736.371	-0.1
736.769	-0.08
737.167	-0.11
737.565	-0.12
737.963	-0.09
738.361	-0.09
738.759	-0.1
739.156	-0.1
739.554	-0.11
739.951	-0.09
740.349	-0.11
740.746	-0.1
741.144	-0.11
741.541	-0.07
741.938	-0.06
742.336	-0.1
742.733	-0.1
743.13	-0.1
743.527	-0.1
743.924	-0.1
744.321	-0.12
744.718	-0.11
745.115	-0.09
745.511	-0.1
745.908	-0.09
746.305	-0.11
746.701	-0.1
747.098	-0.11
747.494	-0.11
747.89	-0.1
748.287	-0.11
748.683	-0.1
749.079	-0.1
749.475	-0.11
749.871	-0.1
750.267	-0.11
750.663	-0.11
751.059	-0.13
751.455	-0.25
751.851	-0.24
752.246	-0.11
752.642	0.04
753.038	0.03
753.433	-0.07
753.829	-0.05
754.224	-0.08
754.619	-0.1
755.015	-0.11
755.41	-0.12
755.805	-0.11
756.2	-0.1
756.595	-0.12
756.99	-0.13
757.385	-0.11
757.78	-0.1
758.175	-0.11
758.569	-0.13
758.964	-0.12
759.359	-0.09
759.753	-0.1
760.148	-0.05
760.542	-0.07
760.936	-0.11
761.331	-0.11
761.725	-0.1
762.119	-0.1
762.513	-0.12
762.907	-0.1
763.301	-0.08
763.695	-0.1
764.089	-0.11
764.483	-0.13
764.877	-0.15
765.27	-0.1
765.664	-0.07
766.057	-0.07
766.451	-0.12
766.844	-0.09
767.238	-0.08
767.631	-0.07
768.024	-0.09
768.417	-0.09
768.811	-0.1
769.204	-0.11
769.597	-0.12
769.99	-0.13
770.383	-0.11
770.775	-0.08
771.168	-0.07
771.561	-0.1
771.953	-0.11
772.346	-0.11
772.739	-0.12
773.131	-0.1
773.523	-0.11
773.916	-0.12
774.308	-0.1
774.7	-0.1
775.092	-0.09
775.484	-0.1
775.876	-0.11
776.268	-0.11
776.66	-0.1
777.052	-0.12
777.444	-0.09
777.836	-0.12
778.227	-0.12
778.619	-0.12
779.01	-0.11
779.402	-0.11
779.793	-0.1
780.185	-0.12
780.576	-0.11
780.967	-0.11
781.358	-0.1
781.749	-0.1
782.14	-0.11
782.531	-0.14
782.922	-0.12
783.313	-0.11
783.704	-0.09
784.095	-0.12
784.485	-0.11
784.876	-0.12
785.266	-0.11
785.657	-0.09
786.047	-0.1
786.438	-0.12
786.828	-0.13
787.218	-0.11
787.608	-0.12
787.998	-0.11
788.389	-0.09
788.779	-0.1
789.168	-0.1
789.558	-0.12
789.948	-0.12
790.338	-0.11
790.728	-0.09
791.117	-0.08
791.507	-0.1
791.896	-0.12
792.286	-0.12
792.675	-0.11
793.064	-0.11
793.454	-0.11
793.843	-0.09
794.232	-0.1
794.621	-0.12
795.01	-0.11
795.399	-0.13
795.788	-0.13
796.176	-0.1
796.565	-0.06
796.954	-0.07
797.343	-0.08
797.731	-0.09
798.12	-0.12
798.508	-0.12
798.896	-0.12
799.285	-0.12
799.673	-0.11
800.061	-0.11
800.449	-0.1
800.837	-0.11
801.225	-0.11
801.613	-0.12
802.001	-0.12
802.389	-0.11
802.777	-0.12
803.164	-0.09
803.552	-0.09
803.94	-0.1
804.327	-0.12
804.715	-0.12
805.102	-0.13
805.489	-0.1
805.877	-0.11
806.264	-0.11
806.651	-0.13
807.038	-0.14
807.425	-0.13
807.812	-0.14
808.199	-0.09
808.586	-0.1
808.972	-0.1
809.359	-0.12
809.746	-0.11
810.132	-0.1
810.519	-0.1
810.905	-0.1
811.292	-0.11
811.678	-0.12
812.064	-0.12
812.45	-0.11
812.836	-0.13
813.223	-0.1
813.609	-0.06
813.995	-0.09
814.38	-0.12
814.766	-0.12
815.152	-0.15
815.538	-0.12
815.923	-0.09
816.309	-0.09
816.694	-0.13
817.08	-0.11
817.465	-0.09
817.851	-0.11
818.236	-0.13
818.621	-0.13
819.006	-0.11
819.391	-0.11
819.776	-0.1
820.161	-0.13
820.546	-0.1
820.931	-0.1
821.316	-0.11
821.7	-0.13
822.085	-0.13
822.47	-0.11
822.854	-0.08
823.239	-0.09
823.623	-0.11
824.007	-0.09
824.391	-0.13
824.776	-0.11
825.16	-0.11
825.544	-0.11
825.928	-0.11
826.312	-0.1
826.696	-0.15
827.08	-0.12
827.463	-0.12
827.847	-0.13
828.231	-0.13
828.614	-0.1
828.998	-0.1
829.381	-0.1
829.765	-0.07
830.148	-0.11
830.531	-0.11
830.914	-0.12
831.297	-0.09
831.681	-0.11
832.064	-0.11
832.446	-0.11
832.829	-0.11
833.212	-0.12
833.595	-0.11
833.978	-0.13
834.36	-0.11
834.743	-0.1
835.125	-0.09
835.508	-0.1
835.89	-0.11
836.272	-0.11
836.655	-0.1
837.037	-0.1
837.419	-0.08
837.801	-0.09
838.183	-0.1
838.565	-0.11
838.947	-0.11
839.329	-0.1
839.71	-0.11
840.092	-0.12
840.474	-0.1
840.855	-0.11
841.237	-0.1
841.618	-0.12
842	-0.14
842.381	-0.09
842.762	-0.07
843.143	-0.09
843.525	-0.13
843.906	-0.1
844.287	-0.08
844.667	-0.09
845.048	-0.1
845.429	-0.1
845.81	-0.08
846.191	-0.1
846.571	-0.12
846.952	-0.1
847.332	-0.09
847.713	-0.1
848.093	-0.09
848.473	-0.1
848.854	-0.11
849.234	-0.08
849.614	-0.09
849.994	-0.08
850.374	-0.11
850.754	-0.09
851.134	-0.09
851.513	-0.1
851.893	-0.1
852.273	-0.1
852.652	-0.1
853.032	-0.1
853.411	-0.09
853.791	-0.08
854.17	-0.09
854.55	-0.1
854.929	-0.08
855.308	-0.07
855.687	-0.09
856.066	-0.07
856.445	-0.09
856.824	-0.1
857.203	-0.09
857.582	-0.09
857.96	-0.08
858.339	-0.07
858.718	-0.06
859.096	-0.07
859.475	-0.07
859.853	-0.09
860.231	-0.07
860.61	-0.07
860.988	-0.09
861.366	-0.07
861.744	-0.07
862.122	-0.06
862.5	-0.09
862.878	-0.09
863.256	-0.08
863.633	-0.07
864.011	-0.09
864.389	-0.08
864.766	-0.07
865.144	-0.09
865.521	-0.06
865.899	-0.07
866.276	-0.08
866.653	-0.07
867.031	-0.06
867.408	-0.07
867.785	-0.07
868.162	-0.06
868.539	-0.06
868.916	-0.05
869.292	-0.06
869.669	-0.05
870.046	-0.05
870.422	-0.07
870.799	-0.09
871.175	-0.08
871.552	-0.06
871.928	-0.07
872.305	-0.06
872.681	-0.05
873.057	-0.06
873.433	-0.06
873.809	-0.05
874.185	-0.07
874.561	-0.07
874.937	-0.06
875.313	-0.05
875.688	-0.04
876.064	-0.06
876.44	-0.08
876.815	-0.07
877.191	-0.05
877.566	-0.05
877.942	-0.07
878.317	-0.06
878.692	-0.06
879.067	-0.05
879.442	-0.06
879.817	-0.03
880.192	-0.04
880.567	-0.04
880.942	-0.05
881.317	-0.06
881.691	-0.05
882.066	-0.07
882.441	-0.03
882.815	-0.07
883.19	-0.07
883.564	-0.06
883.938	-0.05
884.313	-0.05
884.687	-0.05
885.061	-0.06
885.435	-0.05
885.809	-0.05
886.183	-0.05
886.557	-0.04
886.931	-0.05
887.305	-0.05
887.678	-0.04
888.052	-0.05
888.425	-0.05
888.799	-0.06
889.172	-0.05
889.546	-0.04
889.919	-0.06
890.292	-0.04
890.665	-0.06
891.039	-0.05
891.412	-0.04
891.785	-0.04
892.157	-0.04
892.53	-0.05
892.903	-0.05
893.276	-0.03
893.648	-0.04
894.021	-0.03
894.394	-0.05
894.766	-0.05
895.139	-0.03
895.511	-0.06
895.883	-0.05
896.255	-0.04
896.627	-0.06
897	-0.06
897.372	-0.04
897.744	-0.04
898.115	-0.01
898.487	-0.05
898.859	-0
899.231	-0.03
899.602	-0.03
899.974	-0.02
900.345	-0.04
900.717	-0.02
901.088	-0.03
901.46	-0.03
901.831	-0.03
902.202	-0.03
902.573	-0.06
902.944	-0.05
903.315	-0.03
903.686	-0.04
904.057	-0.04
904.428	-0.05
904.799	-0.06
905.169	-0.04
905.54	-0.05
905.91	-0.04
906.281	-0.02
906.651	-0.03
907.022	-0.04
907.392	-0.02
907.762	-0.03
908.132	-0.05
908.502	-0.04
908.872	-0.03
909.242	-0.05
909.612	-0.03
909.982	-0.04
910.352	-0.02
910.722	-0.05
911.091	-0.04
911.461	-0.06
911.83	-0.05
912.2	-0.03
912.569	-0.03
912.938	-0.05
913.308	-0.07
913.677	-0.04
914.046	-0.06
914.415	-0.03
914.784	-0.04
915.153	-0.04
915.522	-0.05
915.891	-0.03
916.259	-0.06
916.628	-0.08
916.997	-0.04
917.365	-0.02
917.734	-0.01
918.102	-0.06
918.47	-0.02
918.839	-0.04
919.207	-0.06
919.575	-0.04
919.943	-0.01
920.311	-0.05
920.679	-0.06
921.047	-0.09
921.415	0
921.783	-0.06
922.15	-0.06
922.518	-0.06
922.886	-0.07
923.253	-0.06
923.62	-0.02
923.988	-0.08
924.355	-0.05
924.722	-0.06
925.09	-0.05
925.457	-0.06
925.824	-0.07
926.191	-0.04
926.558	-0.1
926.925	-0.05
927.291	-0.01
927.658	-0.02
928.025	-0.08
928.391	-0.06
928.758	-0.09
929.124	-0.07
929.491	-0.08
929.857	-0.04
930.223	-0.08
930.59	-0.02
930.956	-0.04
931.322	-0.06
931.688	-0.06
932.054	-0.08
932.42	0
932.785	-0.03
933.151	-0.04
933.517	-0.05
933.882	-0.07
934.248	-0.04
934.613	-0
934.979	-0.08
935.344	-0.04
935.71	-0.08
936.075	-0.08
936.44	-0.03
936.805	-0.04
937.17	-0.03
937.535	-0.01
937.9	0.02
938.265	-0.02
938.63	-0.01
938.994	-0.03
939.359	-0.1
939.724	-0.02
940.088	-0.08
940.453	-0.03
940.817	-0.04
941.181	-0.02
941.545	-0.12
941.91	-0.06
942.274	-0.04
942.638	-0.02
943.002	-0.06
943.366	0.03
943.73	-0.03
944.093	-0.1
944.457	-0.07
944.821	-0
945.184	-0.06
945.548	-0.06
945.911	-0.08
946.275	-0.01
946.638	-0.12
947.001	-0.09
947.365	-0.05
947.728	-0.01
948.091	-0.08
948.454	-0.08
948.817	-0
949.18	0.11
949.543	0.07
949.905	-0
950.268	0.02
950.631	0.05
950.993	-0.01
951.356	-0.05
951.718	-0.2
952.08	-0.1
952.443	0.04
952.805	0.04
953.167	0.06
953.529	-0.14
953.891	-0.12
954.253	-0.08
954.615	0.01
954.977	-0.09
955.339	0.01
955.7	-0.18
956.062	0.05
956.424	-0.12
956.785	-0.06
957.147	-0.05
957.508	-0.09
957.869	-0.03
958.231	-0.24
958.592	-0.06
958.953	-0.11
959.314	-0.07
959.675	0.15
960.036	-0.09
960.397	-0.16
960.757	-0.36
961.118	-0.25
961.479	-0
961.839	-0.1
962.2	-0.34
962.56	-0.44
962.921	-0.58
963.281	-0.07
963.641	-0.29
964.002	0.04
964.362	0.03
964.722	0.04
965.082	0.07
965.442	-0.02
965.801	-0.03
966.161	0.14
966.521	-0.15
966.881	-0.09
967.24	0.11
967.6	-0.05
967.959	-0.07
968.319	-0.81
968.678	-0.22
969.037	-0.1
969.397	-0
969.756	-0.2
970.115	-0.17
970.474	-0.14
970.833	0.37
971.192	0.07
971.55	-0.13
971.909	-0.05
972.268	-0.17
972.626	-0.03
972.985	-0.55
973.343	0.08
973.702	-0.59
974.06	-0.15
974.418	-0.12
974.777	-0.36
975.135	-0.09
975.493	-0.08
975.851	-0.06
976.209	0.28
976.567	-0.29
976.925	-0.06
977.282	-0.14
977.64	0.29
977.998	-0.09
978.355	0.04
978.713	-0.89
979.07	0.34
979.428	-0.32
979.785	-0.39
980.142	0.03
980.499	-0
980.856	-0.44
981.213	0.27
981.57	-0.68
981.927	0.72
982.284	0.99
982.641	0.02
982.997	-0.15
983.354	-0.01
983.711	0.01
984.067	-0.12
984.424	0.01
984.78	-0
985.136	-0.38
985.493	0.23
985.849	-0.4
986.205	-0.16
986.561	-0.06
986.917	-0
987.273	-1.27
987.629	0.25
987.984	-0.08
988.34	-0.23
988.696	-0
989.051	-0.12
989.407	0.29
989.762	0.15
990.118	-0.26
990.473	-0.22
990.828	-0
991.183	-0.07
991.538	0.17
991.893	0.36
992.248	0.57
992.603	0.24
992.958	-0.37
993.313	-0
993.668	-0.28
994.022	-0
994.377	-0.31
994.731	0.01
995.086	-0
995.44	-0
995.794	0.15
996.149	0.76
996.503	-0.4
996.857	-0.52
997.211	-0.98
997.565	-0
997.919	-0
998.273	0.27
998.627	-0
998.98	-0.3
999.334	0.14
999.687	-0.55
1000.041	0.28
1000.394	-0
1000.748	-0.3
1001.101	-0.73
1001.454	-0.08
1001.808	-0.24
1002.161	-0
1002.514	0.08
1002.867	-0
1003.22	-0
1003.572	0.13
1003.925	-0.41
1004.278	-0
1004.631	-0
1004.983	-0.86
1005.336	-0.11
1005.688	-0.89
1006.04	-0.59
1006.393	-0
1006.745	-0.17
1007.097	-0.14
1007.449	-0.37
1007.801	-0
1008.153	-0.3
1008.505	-0.39
1008.857	0.1
1009.209	-0
1009.561	-0
1009.912	0.31
1010.264	-0.43
1010.615	-0.21
1010.967	0.06
1011.318	0.77
1011.669	-0.12
1012.021	0.26
1012.372	-0.35
1012.723	-0
1013.074	-0.45
1013.425	0.19
1013.776	-0.31
1014.127	-0
1014.477	-0.16
1014.828	0.41
1015.179	-0.39
1015.529	-0.76
1015.88	-0.12
1016.23	-0
1016.581	-0.86
1016.931	0.03
1017.281	-0.08
1017.631	-0.14
1017.982	-0.6
1018.332	-0
1018.682	-0.07
1019.031	0.07
1019.381	-1.1
1019.731	-0.6
1020.081	-0.29
1020.43	1.32
1020.78	0.13
1021.129	-0.35
1021.479	-0
1021.828	0.73
1022.178	-0.41
1022.527	0.38
1022.876	-0.03
1023.225	-0.63
1023.574	-0.08
1023.923	-0
1024.272	0.19
1024.621	-0.08
1024.97	-0.87
1025.318	0.24
1025.667	0.01
1026.015	-0.08
1026.364	-0
1026.712	-0
1027.061	-0
1027.409	-0.23
1027.757	-0
1028.105	-0
1028.453	-0
